time,acc_x,acc_y,acc_z,gyro_x,gyro_y,gyro_z,roll,pitch,yaw
3.260,9.640,0.737,-3.158,-0.183,0.183,0.000,167.2,-71.4,158.5
3.270,9.603,0.731,-3.164,-0.183,0.244,0.061,167.2,-71.4,158.5
3.280,9.626,0.695,-3.182,-0.183,0.183,0.122,167.2,-71.4,158.5
3.290,9.612,0.723,-3.156,-0.122,0.244,0.000,167.2,-71.4,158.5
3.300,9.606,0.691,-3.163,-0.122,0.183,0.061,167.2,-71.4,158.5
3.310,9.606,0.701,-3.170,-0.183,0.244,0.122,167.2,-71.4,158.5
3.320,9.616,0.681,-3.154,0.000,0.183,0.061,167.2,-71.4,158.5
3.330,9.632,0.725,-3.156,-0.183,0.183,0.122,167.2,-71.4,158.5
3.340,9.581,0.734,-3.217,-0.122,0.183,0.122,167.2,-71.4,158.5
3.350,9.611,0.751,-3.239,-0.122,0.122,0.122,167.2,-71.4,158.5
3.360,9.618,0.728,-3.182,-0.061,0.122,0.122,167.2,-71.4,158.5
3.370,9.618,0.691,-3.156,-0.122,0.061,0.122,167.2,-71.4,158.5
3.380,9.606,0.737,-3.224,-0.122,0.183,0.122,167.2,-71.4,158.5
3.390,9.603,0.728,-3.195,-0.183,0.183,0.122,167.2,-71.4,158.5
3.400,9.601,0.736,-3.209,-0.183,0.122,0.122,167.2,-71.4,158.5
3.410,9.586,0.717,-3.193,-0.183,0.244,0.122,167.2,-71.4,158.5
3.420,9.606,0.683,-3.169,-0.183,0.244,0.061,167.2,-71.4,158.5
3.430,9.589,0.694,-3.158,-0.122,0.366,0.122,167.2,-71.4,158.5
3.440,9.623,0.739,-3.197,-0.122,0.244,0.122,167.2,-71.4,158.5
3.450,9.600,0.733,-3.189,-0.183,0.244,0.122,167.2,-71.4,158.5
3.460,9.600,0.698,-3.187,-0.183,0.244,0.122,167.2,-71.4,158.5
3.470,9.586,0.725,-3.130,-0.061,0.305,0.122,167.2,-71.4,158.5
3.480,9.589,0.725,-3.176,-0.122,0.244,0.122,167.2,-71.4,158.5
3.490,9.643,0.692,-3.234,-0.061,0.305,0.122,167.2,-71.4,158.5
3.500,9.630,0.748,-3.199,-0.061,0.305,0.122,167.2,-71.4,158.5
3.510,9.571,0.717,-3.164,-0.061,0.244,0.122,167.2,-71.4,158.5
3.520,9.568,0.733,-3.120,-0.061,0.183,0.061,167.2,-71.4,158.5
3.530,9.607,0.705,-3.144,-0.122,0.244,0.122,167.2,-71.4,158.5
3.540,9.581,0.713,-3.219,-0.061,0.183,0.122,167.2,-71.4,158.5
3.550,9.619,0.725,-3.215,-0.061,0.244,0.061,167.2,-71.4,158.5
3.560,9.593,0.681,-3.200,-0.122,0.183,0.122,167.2,-71.4,158.5
3.570,9.620,0.707,-3.193,-0.183,0.183,0.122,167.2,-71.4,158.5
3.580,9.600,0.705,-3.241,-0.061,0.183,0.122,167.2,-71.4,158.5
3.590,9.603,0.710,-3.156,-0.061,0.305,0.122,167.2,-71.4,158.5
3.600,9.587,0.716,-3.199,-0.061,0.183,0.122,167.2,-71.4,158.5
3.610,9.611,0.709,-3.224,-0.061,0.183,0.122,167.2,-71.4,158.5
3.620,9.583,0.742,-3.158,-0.122,0.244,0.000,167.2,-71.4,158.5
3.630,9.607,0.731,-3.177,-0.183,0.183,0.122,167.2,-71.4,158.5
3.640,9.636,0.719,-3.151,-0.183,0.183,0.061,167.2,-71.4,158.5
3.650,9.610,0.713,-3.146,-0.183,0.122,0.122,167.2,-71.4,158.5
3.660,9.603,0.707,-3.155,-0.122,0.183,0.122,167.2,-71.4,158.5
3.670,9.594,0.730,-3.183,-0.122,0.122,0.122,167.2,-71.4,158.5
3.680,9.622,0.700,-3.211,-0.061,0.061,0.122,167.2,-71.4,158.5
3.690,9.637,0.721,-3.167,-0.061,0.122,0.122,167.2,-71.4,158.5
3.700,9.629,0.739,-3.173,-0.122,0.122,0.122,167.2,-71.4,158.5
3.710,9.612,0.743,-3.152,-0.183,0.183,0.122,167.2,-71.4,158.5
3.720,9.656,0.718,-3.148,-0.122,0.122,0.122,167.2,-71.4,158.5
3.730,9.624,0.746,-3.169,-0.061,0.122,0.122,167.2,-71.4,158.5
3.740,9.629,0.703,-3.156,0.061,-0.061,0.122,167.2,-71.3,158.5
3.750,9.574,0.759,-3.118,0.244,-0.305,0.122,167.2,-71.3,158.5
3.760,9.541,0.722,-3.148,0.427,-0.427,0.122,167.3,-71.3,158.5
3.770,9.593,0.730,-3.136,0.671,-0.610,0.061,167.3,-71.3,158.5
3.780,9.575,0.670,-3.139,0.732,-0.610,0.122,167.3,-71.3,158.5
3.790,9.618,0.694,-3.077,0.732,-0.610,0.122,167.3,-71.3,158.5
3.800,9.604,0.700,-3.143,0.732,-0.427,0.061,167.3,-71.3,158.5
3.810,9.573,0.704,-3.115,0.793,-0.488,0.122,167.3,-71.3,158.5
3.820,9.588,0.670,-3.132,1.038,-0.671,0.061,167.3,-71.3,158.5
3.830,9.588,0.675,-3.137,0.977,-0.732,0.122,167.4,-71.3,158.5
3.840,9.607,0.644,-3.255,0.977,-0.793,0.000,167.4,-71.3,158.5
3.850,9.637,0.698,-3.308,0.671,-0.793,0.000,167.4,-71.3,158.4
3.860,9.722,0.734,-3.313,0.549,-0.610,0.000,167.4,-71.3,158.4
3.870,9.640,0.741,-3.271,0.549,-0.305,0.000,167.4,-71.2,158.4
3.880,9.613,0.766,-3.306,0.977,0.183,0.061,167.4,-71.2,158.4
3.890,9.569,0.752,-3.321,0.732,0.427,0.122,167.4,-71.2,158.4
3.900,9.571,0.710,-3.332,0.488,1.404,0.305,167.4,-71.2,158.4
3.910,9.631,0.666,-3.336,0.305,2.075,0.488,167.5,-71.3,158.4
3.920,9.624,0.712,-3.377,0.061,2.747,0.488,167.5,-71.3,158.4
3.930,9.545,0.870,-3.399,-0.488,3.296,1.282,167.5,-71.3,158.4
3.940,9.761,0.736,-3.187,-0.671,3.967,1.587,167.5,-71.3,158.4
3.950,9.707,0.757,-3.355,-1.099,4.517,1.648,167.5,-71.4,158.4
3.960,9.653,0.751,-3.401,-2.441,4.517,2.014,167.5,-71.4,158.4
3.970,9.705,0.643,-3.316,-3.113,4.883,1.587,167.5,-71.4,158.3
3.980,9.739,0.688,-3.222,-4.211,4.761,1.038,167.5,-71.5,158.3
3.990,9.885,0.639,-3.262,-5.005,3.784,0.610,167.4,-71.5,158.3
4.000,10.904,0.476,-3.355,-5.249,1.770,-0.671,167.3,-71.6,158.4
4.010,9.088,0.833,-3.302,-3.967,2.380,-7.080,167.2,-71.6,158.5
4.020,11.685,0.525,-3.337,-2.991,2.747,-5.615,167.0,-71.6,158.7
4.030,9.441,0.778,-3.331,-4.272,-1.648,-4.150,166.8,-71.6,158.8
4.040,12.515,0.209,-3.082,-3.784,-3.723,-2.563,166.7,-71.5,158.9
4.050,11.001,1.398,-3.970,7.568,38.330,-6.775,166.5,-71.9,159.1
4.060,7.619,1.604,-3.620,-2.686,34.485,7.446,166.4,-72.2,159.2
4.070,12.827,0.766,-2.975,-3.479,24.170,3.967,166.3,-72.4,159.3
4.080,11.014,1.306,-3.073,-7.996,28.442,2.502,166.0,-72.7,159.6
4.090,10.322,1.349,-2.556,-20.752,31.372,6.897,165.6,-73.0,159.8
4.100,7.949,1.833,-3.520,-24.536,24.963,7.568,165.3,-73.3,159.8
4.110,9.251,1.282,-2.590,-36.743,26.672,8.423,164.9,-73.5,159.8
4.120,9.073,1.576,-3.641,-40.161,17.761,11.169,164.6,-73.7,159.7
4.130,9.775,0.771,-1.600,-45.593,11.780,10.376,164.4,-73.9,159.5
4.140,10.760,0.601,-1.705,-33.508,-3.052,9.888,164.3,-74.0,159.2
4.150,10.139,0.776,-2.731,-7.690,-15.564,5.005,164.5,-73.9,158.8
4.160,10.243,0.795,-3.373,5.798,-22.644,4.028,164.9,-73.8,158.5
4.170,10.262,0.245,-1.884,14.099,-33.936,1.587,165.4,-73.5,158.1
4.180,9.673,0.333,-2.733,19.653,-58.167,0.122,166.0,-73.0,157.6
4.190,9.946,0.385,-3.624,8.911,-74.829,-0.671,166.8,-72.3,157.0
4.200,10.020,0.870,-2.948,5.859,-80.994,-2.075,167.3,-71.5,156.5
4.210,9.854,0.559,-3.877,10.132,-80.566,-1.526,167.9,-70.7,156.0
4.220,9.861,1.005,-5.591,11.963,-70.984,-0.549,168.4,-70.0,155.5
4.230,10.145,1.403,-8.095,9.399,-46.204,1.099,168.9,-69.3,155.2
4.240,10.492,1.402,-9.525,4.211,-7.935,4.150,169.1,-69.0,155.0
4.250,10.844,1.244,-9.115,-6.165,39.490,7.446,169.2,-69.0,154.9
4.260,10.442,1.064,-7.355,-12.451,82.520,10.132,169.0,-69.6,154.9
4.270,10.126,0.792,-4.872,-11.658,111.877,12.207,168.7,-70.5,155.2
4.280,10.218,0.525,-2.425,-10.559,122.315,14.404,168.3,-71.7,155.5
4.290,9.901,0.163,-1.085,-4.333,110.474,14.709,167.9,-72.9,155.8
4.300,9.948,0.287,-0.751,4.456,88.135,12.329,167.7,-73.9,156.1
4.310,9.981,0.831,-1.649,10.132,58.655,9.033,167.6,-74.7,156.3
4.320,10.250,0.604,-3.109,8.484,41.870,6.714,167.5,-75.1,156.4
4.330,10.535,0.704,-3.898,8.423,45.715,5.005,167.5,-75.5,156.6
4.340,10.728,0.821,-4.313,2.747,56.396,4.028,167.2,-76.0,156.9
4.350,10.847,0.430,-4.325,-0.977,68.665,5.554,166.9,-76.6,157.2
4.360,10.753,0.344,-3.819,-1.831,88.318,7.446,166.4,-77.3,157.7
4.370,10.634,0.517,-3.126,-1.953,95.032,8.240,165.8,-78.2,158.3
4.380,13.992,1.458,-1.023,0.793,87.463,10.803,165.2,-79.1,158.9
4.390,15.187,-0.205,-4.309,-7.935,22.827,8.728,165.1,-79.6,159.0
4.400,6.732,0.673,-7.039,1.465,120.850,7.751,164.4,-80.2,159.6
4.410,9.710,0.177,-4.240,21.240,161.560,5.432,162.6,-81.7,161.8
4.420,10.789,0.683,-1.439,-28.625,123.596,2.991,159.7,-82.8,164.5
4.430,12.016,-0.117,-0.105,-10.559,130.249,3.357,155.5,-84.0,168.5
4.440,12.917,-0.786,-0.137,-2.014,123.962,-2.747,149.2,-85.2,174.8
4.450,8.688,2.855,-2.124,-3.357,102.173,-5.005,140.7,-86.0,-176.7
4.460,11.362,0.585,-1.656,10.071,116.760,0.427,127.6,-86.7,-163.5
4.470,11.769,0.644,-1.212,-4.211,110.474,-3.723,109.8,-87.2,-145.7
4.480,12.011,0.102,-0.815,-2.869,119.141,-4.272,86.1,-87.3,-122.0
4.490,11.827,0.038,-0.402,-1.709,121.155,-6.348,63.3,-87.0,-99.2
4.500,11.302,0.225,-0.355,4.150,114.380,-9.583,48.1,-86.3,-83.9
4.510,10.833,0.189,-0.493,6.897,111.206,-11.108,38.9,-85.4,-74.6
4.520,11.953,0.126,0.128,6.958,113.464,-10.315,32.8,-84.5,-68.4
4.530,13.034,1.830,0.304,-0.183,102.539,-10.254,28.5,-83.6,-64.1
4.540,11.760,3.167,-1.147,-3.845,109.497,-0.122,25.5,-82.6,-61.1
4.550,11.026,1.714,-1.517,3.113,151.672,6.775,22.1,-81.4,-57.6
4.560,11.129,0.672,-0.354,-6.897,181.885,6.287,18.5,-79.9,-54.0
4.570,10.847,0.735,2.841,-29.480,183.777,4.333,15.4,-78.3,-51.1
4.580,10.837,-0.299,4.524,-31.006,161.377,5.005,12.9,-76.6,-48.9
4.590,9.953,-0.703,4.704,-21.240,129.089,2.075,11.2,-75.2,-47.3
4.600,9.585,-0.381,3.576,-10.742,96.313,-0.427,10.1,-74.1,-46.4
4.610,10.041,-0.600,2.460,-12.207,72.510,-1.648,9.5,-73.3,-45.8
4.620,9.759,0.132,0.899,-16.418,66.772,-2.686,8.9,-72.7,-45.4
4.630,9.284,0.557,0.170,-20.691,88.562,2.014,8.4,-72.0,-45.0
4.640,9.064,0.402,0.608,-25.452,117.493,7.874,7.5,-71.0,-44.4
4.650,8.920,0.284,2.258,-29.297,134.155,10.925,6.5,-69.8,-43.7
4.660,9.133,0.417,4.266,-27.588,129.822,12.268,5.6,-68.5,-42.9
4.670,9.058,0.363,5.713,-22.827,109.436,11.719,4.8,-67.4,-42.3
4.680,8.820,-0.076,5.992,-15.747,82.214,9.155,4.2,-66.4,-41.9
4.690,8.717,-0.546,5.445,-10.132,54.993,5.249,3.8,-65.7,-41.6
4.700,8.895,-0.985,4.914,-8.362,36.377,0.305,3.5,-65.3,-41.4
4.710,9.015,-1.126,4.375,-5.554,28.442,-3.662,3.3,-64.9,-41.3
4.720,9.246,-0.805,4.139,-3.113,27.954,-5.798,3.2,-64.7,-41.3
4.730,9.734,-0.338,4.003,-0.793,28.625,-7.813,3.3,-64.4,-41.3
4.740,10.215,0.322,3.887,-0.183,27.405,-8.728,3.4,-64.1,-41.4
4.750,10.541,0.903,3.791,-0.977,27.466,-8.972,3.5,-63.9,-41.6
4.760,10.700,1.172,3.791,-2.441,30.884,-8.728,3.7,-63.6,-41.9
4.770,10.279,1.192,3.889,-5.066,35.828,-8.606,3.9,-63.4,-42.1
4.780,9.624,0.827,4.289,-7.019,36.438,-9.033,4.1,-63.0,-42.3
4.790,9.091,0.249,4.700,-6.287,30.396,-10.071,4.2,-62.7,-42.5
4.800,8.648,-0.448,4.893,-2.258,20.081,-11.963,4.3,-62.5,-42.7
4.810,8.434,-0.800,4.467,2.930,7.874,-12.634,4.5,-62.3,-42.9
4.820,8.437,-0.853,3.680,7.202,-1.892,-13.428,4.7,-62.3,-43.1
4.830,8.377,-0.754,3.040,8.972,-4.456,-13.184,4.9,-62.4,-43.3
4.840,8.209,-0.410,2.712,9.521,0.427,-12.390,5.2,-62.5,-43.5
4.850,8.030,-0.017,2.770,9.766,8.606,-11.475,5.4,-62.5,-43.7
4.860,7.782,0.300,3.165,6.836,15.198,-11.780,5.7,-62.4,-43.9
4.870,7.534,0.757,3.768,3.418,16.907,-13.489,6.0,-62.2,-44.1
4.880,7.426,1.015,4.248,0.732,12.085,-16.113,6.3,-62.1,-44.5
4.890,7.419,1.408,4.312,-0.305,2.197,-17.944,6.7,-62.0,-44.9
4.900,7.204,1.884,3.982,-1.526,-9.216,-19.165,7.1,-62.0,-45.4
4.910,6.979,1.933,3.421,-4.700,-18.799,-18.616,7.6,-62.1,-45.9
4.920,6.665,2.079,2.902,-10.010,-22.827,-17.639,8.1,-62.3,-46.5
4.930,6.332,2.362,2.862,-16.785,-20.874,-16.846,8.5,-62.5,-47.1
4.940,6.185,2.155,2.923,-20.813,-16.663,-16.296,8.8,-62.7,-47.7
4.950,6.071,1.896,2.861,-22.156,-14.221,-15.503,9.1,-62.8,-48.2
4.960,6.125,1.572,2.924,-25.208,-12.878,-13.733,9.3,-62.9,-48.7
4.970,6.153,1.359,3.034,-27.649,-11.658,-12.634,9.4,-63.0,-49.1
4.980,5.980,1.070,3.225,-30.518,-13.184,-12.573,9.5,-63.1,-49.5
4.990,5.935,0.393,3.267,-30.334,-19.165,-13.123,9.5,-63.3,-49.9
5.000,6.055,-0.265,3.097,-28.076,-27.466,-14.221,9.6,-63.5,-50.2
5.010,6.142,-0.664,2.730,-22.583,-34.912,-16.052,9.7,-63.8,-50.6
5.020,6.344,-0.918,2.367,-17.517,-37.109,-17.029,9.8,-64.1,-51.0
5.030,6.362,-0.840,2.092,-14.038,-36.133,-17.456,10.1,-64.5,-51.5
5.040,6.262,-0.925,2.001,-12.573,-34.729,-17.090,10.3,-64.9,-51.9
5.050,5.810,-0.495,1.914,-12.817,-34.912,-16.602,10.5,-65.2,-52.3
5.060,5.403,0.012,1.938,-15.442,-36.316,-15.747,10.8,-65.6,-52.8
5.070,5.352,0.474,2.107,-18.433,-37.964,-14.465,11.1,-66.0,-53.3
5.080,5.505,0.840,2.338,-20.325,-38.635,-13.733,11.4,-66.3,-53.9
5.090,5.881,0.935,2.685,-20.203,-39.429,-13.672,11.7,-66.7,-54.4
5.100,6.435,1.034,2.897,-18.616,-40.100,-12.390,12.1,-67.0,-55.0
5.110,7.360,0.891,2.884,-16.235,-39.734,-9.888,12.4,-67.4,-55.5
5.120,8.354,0.408,2.705,-13.733,-40.833,-7.019,12.7,-67.8,-56.0
5.130,9.235,0.508,2.317,-12.207,-40.405,-2.502,12.9,-68.2,-56.3
5.140,9.832,0.154,1.982,-12.756,-32.898,4.333,12.9,-68.6,-56.5
5.150,9.465,-0.163,1.937,-12.634,-17.700,10.254,12.6,-68.9,-56.3
5.160,8.585,-0.174,2.206,-13.367,-3.784,14.099,12.1,-69.1,-55.9
5.170,7.745,-0.155,2.733,-12.817,-0.732,14.893,11.5,-69.2,-55.5
5.180,7.180,0.089,2.689,-10.986,-6.958,14.709,11.0,-69.3,-55.0
5.190,7.289,0.110,2.223,-7.446,-12.146,13.611,10.6,-69.4,-54.6
5.200,7.359,0.084,2.048,-6.470,-13.611,13.367,10.2,-69.6,-54.3
5.210,7.665,0.028,1.775,-4.761,-12.695,15.015,9.8,-69.8,-53.9
5.220,7.563,0.215,1.593,-3.601,-9.033,17.212,9.3,-69.9,-53.5
5.230,7.463,0.346,1.730,-3.113,-6.104,19.348,8.8,-70.1,-53.0
5.240,7.402,0.846,1.934,-4.578,-5.554,20.691,8.2,-70.2,-52.4
5.250,7.682,1.457,1.896,-7.141,-7.263,20.264,7.7,-70.3,-51.9
5.260,7.976,2.106,1.821,-12.573,-8.484,18.066,7.3,-70.5,-51.6
5.270,8.468,2.613,1.938,-18.677,-8.118,15.015,7.0,-70.6,-51.4
5.280,9.168,3.021,1.902,-23.132,-8.423,11.414,6.8,-70.7,-51.4
5.290,9.856,3.142,1.834,-25.757,-9.277,7.080,6.7,-70.9,-51.5
5.300,10.239,3.234,1.377,-27.527,-10.193,3.601,6.7,-71.0,-51.8
5.310,10.321,3.061,0.980,-29.358,-10.376,0.732,6.9,-71.2,-52.2
5.320,10.054,2.525,0.569,-30.396,-11.475,-1.831,7.0,-71.4,-52.6
5.330,9.808,2.428,0.326,-30.884,-10.803,-2.808,7.2,-71.6,-53.1
5.340,10.103,2.165,0.521,-31.494,-11.658,-4.822,7.4,-71.9,-53.6
5.350,10.470,1.323,0.555,-29.175,-15.381,-8.057,7.6,-72.1,-54.1
5.360,11.368,1.028,0.626,-25.330,-17.639,-12.085,8.0,-72.4,-54.7
5.370,11.985,0.588,0.712,-21.240,-15.686,-14.709,8.4,-72.6,-55.4
5.380,12.235,0.060,1.478,-17.395,-4.089,-13.184,8.7,-72.8,-56.0
5.390,12.094,-0.661,3.403,-12.207,9.888,-9.094,8.8,-72.8,-56.2
5.400,12.821,-1.895,6.874,-3.357,21.301,-6.470,8.7,-72.6,-56.1
5.410,13.432,-3.531,9.391,11.353,9.155,-15.076,8.5,-72.3,-56.0
5.420,12.004,-1.930,5.651,24.719,-17.944,-24.780,8.9,-72.2,-56.2
5.430,11.508,0.206,3.258,25.696,-21.851,-19.592,9.6,-72.4,-56.7
5.440,11.475,1.411,4.422,28.259,-7.751,-7.996,10.3,-72.5,-57.1
5.450,10.817,1.529,5.298,31.372,-9.216,-3.662,10.9,-72.5,-57.4
5.460,9.534,2.262,5.622,25.635,-24.475,-2.991,11.5,-72.6,-57.7
5.470,8.824,1.914,5.792,20.935,-33.142,-2.869,12.2,-72.8,-58.2
5.480,7.921,0.892,5.634,17.761,-35.828,-6.104,12.9,-73.0,-58.7
5.490,7.021,0.102,5.399,19.470,-37.476,-13.306,13.6,-73.2,-59.3
5.500,6.891,-0.661,5.719,22.095,-42.419,-21.484,14.6,-73.4,-60.1
5.510,7.911,-1.540,6.239,24.963,-54.077,-31.189,15.8,-73.7,-61.2
5.520,9.492,-1.771,6.537,27.222,-72.266,-41.443,17.5,-74.1,-62.7
5.530,11.136,-1.129,5.582,32.104,-91.431,-48.340,19.9,-74.6,-64.8
5.540,12.740,0.290,3.226,37.720,-96.802,-46.631,22.8,-75.3,-67.5
5.550,13.632,1.369,0.566,38.330,-75.500,-34.912,25.8,-75.9,-70.2
5.560,12.755,1.924,-0.545,29.724,-34.851,-20.569,28.1,-76.4,-72.2
5.570,10.883,1.621,1.040,19.043,5.859,-5.615,29.1,-76.4,-73.0
5.580,9.291,0.856,3.127,17.761,23.193,3.906,28.8,-76.3,-72.6
5.590,8.009,0.563,3.722,21.973,17.578,7.874,28.2,-76.1,-71.8
5.600,7.468,0.315,3.435,24.963,2.319,9.888,27.8,-76.0,-71.1
5.610,7.671,0.034,2.693,26.062,-13.428,12.024,27.6,-76.1,-70.6
5.620,8.133,-0.417,1.904,26.245,-20.813,15.442,27.5,-76.3,-70.3
5.630,8.653,-0.618,1.341,24.048,-20.447,17.700,27.3,-76.6,-69.8
5.640,8.732,-0.470,0.922,20.508,-15.991,17.761,27.0,-76.9,-69.2
5.650,8.514,-0.319,0.926,17.883,-10.681,16.541,26.6,-77.2,-68.6
5.660,8.158,0.116,0.947,17.456,-7.996,14.587,26.2,-77.4,-68.1
5.670,7.778,0.341,0.686,16.785,-8.240,12.573,25.9,-77.5,-67.7
5.680,7.335,0.433,0.564,16.968,-8.789,10.559,25.9,-77.7,-67.4
5.690,6.962,0.524,0.578,16.052,-10.254,9.460,25.9,-77.9,-67.2
5.700,6.751,0.626,0.618,15.076,-12.695,9.033,25.9,-78.1,-67.1
5.710,6.914,0.751,0.414,13.672,-13.733,8.972,26.1,-78.2,-67.1
5.720,7.047,0.566,0.345,13.000,-8.362,10.620,26.1,-78.4,-67.0
5.730,6.762,0.761,0.622,14.893,-4.700,11.230,25.9,-78.5,-66.7
5.740,6.900,0.815,0.922,14.465,-4.028,12.207,25.8,-78.7,-66.4
5.750,6.931,0.938,1.027,16.479,-5.005,12.024,25.6,-78.8,-66.0
5.760,7.011,0.612,1.021,14.893,-4.883,12.573,25.4,-78.9,-65.6
5.770,7.271,0.065,1.083,13.123,-1.953,13.000,25.0,-79.0,-65.1
5.780,7.626,-0.300,1.548,13.367,3.967,12.207,24.4,-79.0,-64.3
5.790,7.801,-0.588,1.489,13.306,2.380,10.864,23.7,-79.0,-63.5
5.800,8.748,-0.782,0.996,12.146,0.366,10.193,23.0,-79.1,-62.7
5.810,9.326,-0.732,0.286,10.803,0.549,9.338,22.4,-79.2,-62.0
5.820,9.964,-0.477,-0.336,10.437,3.784,8.057,21.9,-79.3,-61.4
5.830,10.162,0.293,-0.770,13.062,8.667,5.615,21.6,-79.3,-60.9
5.840,10.037,0.693,-1.098,15.808,14.160,3.662,21.5,-79.3,-60.6
5.850,9.710,1.107,-1.187,15.869,17.639,1.709,21.5,-79.3,-60.5
5.860,9.211,1.266,-0.667,12.207,20.142,0.488,21.6,-79.2,-60.4
5.870,9.048,0.818,0.389,11.108,19.897,0.732,21.6,-79.1,-60.3
5.880,8.881,0.096,0.827,10.986,11.475,0.000,21.5,-79.0,-60.1
5.890,9.338,-0.888,1.683,8.728,2.563,-0.977,21.4,-79.0,-59.9
5.900,9.781,-1.404,2.339,8.545,-12.756,-3.296,21.4,-79.1,-59.9
5.910,10.044,-1.642,2.292,8.667,-32.471,-7.446,21.9,-79.4,-60.2
5.920,10.142,-0.914,1.660,4.761,-55.725,-13.428,23.0,-79.8,-61.4
5.930,10.620,0.833,0.379,-5.371,-72.876,-19.470,25.3,-80.4,-63.7
5.940,10.876,3.358,0.524,-13.794,-71.655,-19.470,28.7,-81.0,-67.2
5.950,11.660,4.536,2.319,-7.324,-46.875,-3.723,31.7,-81.4,-70.3
5.960,11.861,2.598,7.948,-4.211,-33.081,16.663,32.7,-81.6,-71.4
2.390,9.219,1.410,-4.056,0.061,0.305,-0.061,161.2,-64.6,155.7
2.400,9.198,1.378,-4.090,0.061,0.061,-0.061,161.2,-64.6,155.7
2.410,9.209,1.433,-4.097,0.000,-0.183,-0.183,161.2,-64.6,155.7
2.420,9.235,1.433,-4.176,-0.122,-0.366,-0.244,161.2,-64.6,155.7
2.430,9.215,1.407,-4.139,-0.122,-0.061,-0.244,161.2,-64.6,155.7
2.440,9.197,1.420,-4.136,-0.183,0.122,-0.122,161.2,-64.6,155.7
2.450,9.182,1.393,-4.142,-0.183,0.183,-0.122,161.2,-64.6,155.7
2.460,9.212,1.379,-4.086,-0.122,0.000,-0.183,161.2,-64.6,155.7
2.470,9.198,1.405,-4.151,-0.061,-0.244,-0.122,161.2,-64.6,155.7
2.480,9.230,1.434,-4.136,-0.061,0.000,-0.183,161.2,-64.6,155.7
2.490,9.199,1.414,-4.099,0.122,0.427,-0.244,161.2,-64.6,155.7
2.500,9.239,1.399,-4.082,0.122,0.305,-0.305,161.2,-64.6,155.7
2.510,9.237,1.393,-4.121,0.122,0.000,-0.244,161.2,-64.6,155.7
2.520,9.205,1.460,-4.148,0.366,-0.061,-0.488,161.2,-64.6,155.7
2.530,9.261,1.428,-4.123,0.610,0.122,-0.305,161.2,-64.6,155.7
2.540,9.225,1.393,-4.127,0.488,0.244,-0.366,161.2,-64.6,155.7
2.550,9.241,1.423,-4.110,0.366,0.305,-0.183,161.2,-64.6,155.7
2.560,9.207,1.450,-4.108,0.183,0.305,-0.183,161.2,-64.6,155.7
2.570,9.184,1.429,-4.082,0.366,0.061,-0.183,161.2,-64.6,155.7
2.580,9.221,1.439,-4.164,0.305,-0.305,-0.244,161.2,-64.6,155.7
2.590,9.175,1.428,-4.176,0.244,-0.671,-0.244,161.2,-64.6,155.7
2.600,9.202,1.420,-4.135,0.122,-0.427,-0.122,161.2,-64.6,155.7
2.610,9.179,1.402,-4.134,0.000,-0.427,-0.122,161.2,-64.6,155.7
2.620,9.193,1.433,-4.096,-0.122,-0.244,-0.122,161.2,-64.6,155.7
2.630,9.179,1.402,-4.138,0.061,0.061,-0.122,161.2,-64.6,155.7
2.640,9.217,1.402,-4.100,-0.061,0.366,-0.122,161.2,-64.6,155.7
2.650,9.263,1.414,-4.100,-0.061,0.427,-0.122,161.2,-64.6,155.7
2.660,9.235,1.422,-4.079,0.061,0.244,-0.122,161.2,-64.6,155.7
2.670,9.192,1.434,-4.124,0.122,0.000,-0.183,161.2,-64.6,155.7
2.680,9.246,1.434,-4.099,0.000,0.000,-0.122,161.2,-64.6,155.7
2.690,9.234,1.417,-4.042,-0.061,0.244,-0.122,161.2,-64.6,155.7
2.700,9.213,1.408,-4.072,-0.183,0.122,-0.122,161.2,-64.6,155.7
2.710,9.209,1.430,-4.037,-0.183,-0.244,-0.122,161.2,-64.6,155.7
2.720,9.193,1.389,-4.017,-0.122,-0.610,-0.244,161.2,-64.6,155.7
2.730,9.227,1.435,-4.126,-0.122,-0.793,-0.122,161.2,-64.6,155.7
2.740,9.240,1.396,-4.166,-0.122,-0.671,-0.183,161.2,-64.6,155.7
2.750,9.206,1.452,-4.145,-0.122,-0.305,-0.122,161.2,-64.6,155.7
2.760,9.217,1.414,-4.104,-0.183,0.305,-0.122,161.2,-64.6,155.7
2.770,9.221,1.412,-4.066,-0.183,0.366,-0.122,161.2,-64.6,155.7
2.780,9.237,1.392,-4.081,-0.122,-0.122,-0.122,161.2,-64.6,155.7
2.790,9.209,1.404,-4.146,0.122,-0.610,-0.122,161.2,-64.6,155.7
2.800,9.245,1.429,-4.163,0.244,-0.427,-0.122,161.2,-64.6,155.7
2.810,9.227,1.427,-4.205,0.183,0.000,-0.122,161.2,-64.6,155.7
2.820,9.187,1.436,-4.147,0.122,0.366,-0.061,161.2,-64.6,155.7
2.830,9.144,1.399,-4.139,0.061,0.427,-0.061,161.2,-64.6,155.7
2.840,9.211,1.429,-4.116,0.000,0.244,-0.122,161.2,-64.6,155.7
2.850,9.193,1.373,-4.183,0.000,-0.061,-0.183,161.2,-64.6,155.7
2.860,9.178,1.397,-4.087,-0.122,-0.427,-0.122,161.2,-64.6,155.7
2.870,9.192,1.417,-4.118,-0.061,-0.488,-0.183,161.2,-64.6,155.7
2.880,9.229,1.414,-4.171,-0.061,-0.488,-0.122,161.2,-64.6,155.7
2.890,9.245,1.411,-4.147,-0.122,-0.305,-0.122,161.2,-64.6,155.7
2.900,9.235,1.401,-4.134,-0.061,-0.183,-0.183,161.2,-64.6,155.7
2.910,9.212,1.427,-4.146,-0.122,-0.061,-0.122,161.2,-64.6,155.7
2.920,9.211,1.427,-4.106,-0.183,-0.061,-0.061,161.2,-64.6,155.7
2.930,9.254,1.377,-4.102,-0.061,-0.061,-0.122,161.3,-64.6,155.7
2.940,9.225,1.379,-4.115,-0.061,0.000,-0.183,161.3,-64.6,155.7
2.950,9.233,1.441,-4.093,-0.183,0.000,-0.122,161.3,-64.6,155.7
2.960,9.204,1.379,-4.170,-0.183,-0.366,-0.061,161.3,-64.6,155.7
2.970,9.213,1.392,-4.132,-0.122,-0.061,-0.061,161.3,-64.6,155.7
2.980,9.223,1.401,-4.109,-0.061,0.305,0.000,161.3,-64.6,155.7
2.990,9.211,1.395,-4.102,-0.061,0.732,-0.061,161.3,-64.6,155.7
3.000,9.210,1.417,-4.096,-0.122,0.610,-0.061,161.3,-64.6,155.7
3.010,9.231,1.420,-4.105,0.061,0.427,-0.122,161.3,-64.6,155.7
3.020,9.224,1.417,-4.070,0.000,0.427,-0.061,161.3,-64.6,155.7
3.030,9.221,1.417,-4.051,-0.122,0.427,0.000,161.3,-64.6,155.7
3.040,9.222,1.395,-4.117,-0.183,0.244,-0.061,161.3,-64.6,155.7
3.050,9.243,1.384,-4.164,-0.061,0.183,-0.061,161.3,-64.6,155.7
3.060,9.205,1.405,-4.076,-0.061,0.488,0.000,161.3,-64.6,155.7
3.070,9.229,1.403,-4.178,-0.122,0.488,-0.061,161.3,-64.6,155.7
3.080,9.194,1.410,-4.133,-0.244,0.427,-0.061,161.3,-64.6,155.7
3.090,9.215,1.448,-4.120,-0.427,0.977,0.061,161.3,-64.6,155.7
3.100,9.235,1.450,-4.054,-0.549,1.282,0.122,161.3,-64.7,155.7
3.110,9.206,1.380,-4.042,-0.671,0.977,0.122,161.2,-64.7,155.7
3.120,9.255,1.398,-4.116,-0.549,0.427,0.061,161.2,-64.7,155.7
3.130,9.221,1.374,-4.153,-0.305,0.305,0.061,161.2,-64.7,155.7
3.140,9.181,1.393,-4.194,-0.183,0.610,0.122,161.2,-64.7,155.7
3.150,9.216,1.374,-4.163,-0.244,0.916,0.000,161.2,-64.7,155.7
3.160,9.239,1.410,-4.149,-0.183,1.038,0.000,161.2,-64.7,155.7
3.170,9.235,1.415,-4.175,-0.244,0.977,0.061,161.2,-64.7,155.7
3.180,9.230,1.391,-4.133,-0.366,1.160,0.061,161.2,-64.7,155.7
3.190,9.209,1.423,-4.160,-0.366,1.282,0.000,161.2,-64.8,155.7
3.200,9.198,1.424,-4.070,-0.488,1.282,0.061,161.2,-64.8,155.8
3.210,9.197,1.438,-4.068,-0.427,1.343,0.122,161.2,-64.8,155.8
3.220,9.222,1.422,-4.005,-0.427,1.221,0.122,161.2,-64.8,155.8
3.230,9.225,1.397,-4.006,-0.366,0.793,0.122,161.2,-64.8,155.8
3.240,9.222,1.403,-3.979,-0.366,0.366,0.000,161.2,-64.8,155.8
3.250,9.288,1.401,-4.080,-0.610,0.183,-0.061,161.2,-64.8,155.8
3.260,9.202,1.405,-4.011,-0.610,0.244,-0.061,161.2,-64.8,155.8
3.270,9.248,1.391,-4.121,-0.610,0.244,-0.122,161.2,-64.8,155.8
3.280,9.231,1.403,-4.099,-0.488,0.732,-0.061,161.1,-64.8,155.8
3.290,9.206,1.447,-4.130,-0.671,1.038,0.000,161.1,-64.9,155.8
3.300,9.249,1.397,-4.041,-0.732,1.099,-0.061,161.1,-64.9,155.8
3.310,9.233,1.365,-4.079,-0.671,1.038,0.000,161.1,-64.9,155.8
3.320,9.260,1.375,-4.080,-0.488,1.160,0.061,161.1,-64.9,155.8
3.330,9.252,1.384,-4.039,-0.427,1.526,0.122,161.1,-64.9,155.8
3.340,9.230,1.363,-4.026,-0.488,1.892,0.061,161.1,-64.9,155.8
3.350,9.263,1.374,-3.975,-0.366,1.709,0.061,161.1,-64.9,155.8
3.360,9.263,1.421,-3.971,-0.366,1.099,-0.061,161.1,-65.0,155.8
3.370,9.252,1.399,-4.047,-0.122,0.366,-0.122,161.1,-65.0,155.8
3.380,9.275,1.386,-4.091,-0.061,0.305,-0.122,161.0,-65.0,155.8
3.390,9.252,1.417,-4.132,-0.122,0.610,-0.183,161.0,-65.0,155.9
3.400,9.225,1.421,-4.081,-0.183,0.977,-0.122,161.0,-65.0,155.9
3.410,9.252,1.423,-4.121,-0.305,1.038,-0.122,161.0,-65.0,155.9
3.420,9.204,1.428,-4.124,-0.366,0.671,-0.122,161.0,-65.0,155.9
3.430,9.259,1.397,-4.149,-0.305,0.793,-0.122,161.0,-65.0,155.9
3.440,9.228,1.365,-4.073,-0.488,1.099,0.000,161.0,-65.0,155.9
3.450,9.164,1.377,-4.084,-0.610,1.282,0.122,161.0,-65.0,155.9
3.460,9.240,1.399,-4.063,-0.610,1.282,0.122,161.0,-65.0,155.9
3.470,9.246,1.379,-4.021,-0.488,1.160,0.061,161.0,-65.1,155.9
3.480,9.217,1.385,-4.039,-0.427,1.282,0.000,161.0,-65.1,155.9
3.490,9.289,1.407,-3.926,-0.427,1.282,0.061,161.0,-65.1,155.9
3.500,9.230,1.377,-3.948,-0.549,0.854,-0.061,161.0,-65.1,155.9
3.510,9.257,1.402,-4.011,-0.366,0.549,-0.122,160.9,-65.1,155.9
3.520,9.282,1.401,-4.001,-0.366,0.305,-0.122,160.9,-65.1,155.9
3.530,9.252,1.421,-3.994,-0.305,0.122,-0.122,160.9,-65.1,155.9
3.540,9.276,1.389,-4.068,-0.244,0.366,-0.122,160.9,-65.1,155.9
3.550,9.257,1.371,-4.053,-0.183,0.549,-0.122,160.9,-65.1,155.9
3.560,9.237,1.404,-4.053,-0.366,1.099,-0.061,160.9,-65.1,155.9
3.570,9.270,1.427,-4.098,-0.244,1.587,0.000,160.9,-65.2,156.0
3.580,9.273,1.380,-4.069,-0.366,2.075,0.061,160.9,-65.2,156.0
3.590,9.259,1.448,-3.991,-0.488,2.197,0.122,160.9,-65.2,156.0
3.600,9.272,1.433,-3.966,-0.488,2.197,0.122,160.9,-65.2,156.0
3.610,9.255,1.393,-3.940,-0.488,1.648,0.061,160.8,-65.2,156.0
3.620,9.207,1.421,-3.939,-0.366,1.038,-0.122,160.8,-65.3,156.0
3.630,9.228,1.415,-4.041,-0.305,0.732,-0.061,160.8,-65.3,156.0
3.640,9.231,1.415,-4.026,-0.366,0.793,-0.122,160.8,-65.3,156.0
3.650,9.209,1.347,-4.000,-0.610,0.793,-0.122,160.8,-65.3,156.0
3.660,9.251,1.363,-4.067,-0.671,0.854,-0.122,160.8,-65.3,156.0
3.670,9.263,1.414,-4.066,-0.244,0.977,-0.061,160.8,-65.3,156.0
3.680,9.251,1.410,-3.985,-0.549,1.343,0.061,160.8,-65.3,156.0
3.690,9.227,1.369,-4.047,-0.427,1.587,0.061,160.8,-65.3,156.1
3.700,9.227,1.372,-4.045,-0.061,1.221,-0.061,160.8,-65.4,156.1
3.710,9.303,1.403,-4.020,-0.061,1.038,0.061,160.8,-65.4,156.1
3.720,9.312,1.430,-4.017,-0.183,1.404,0.061,160.7,-65.4,156.1
3.730,9.273,1.445,-4.005,-0.183,1.526,0.000,160.7,-65.4,156.1
3.740,9.282,1.442,-3.991,-0.366,1.465,0.061,160.7,-65.4,156.1
3.750,9.271,1.430,-3.952,-0.488,1.404,0.000,160.7,-65.4,156.1
3.760,9.265,1.429,-3.947,-0.427,1.038,0.000,160.7,-65.4,156.1
3.770,9.264,1.416,-4.017,-0.488,0.793,0.000,160.7,-65.4,156.1
3.780,9.272,1.392,-4.001,-0.671,0.916,0.000,160.7,-65.5,156.1
3.790,9.313,1.371,-3.981,-0.488,1.160,0.061,160.7,-65.5,156.1
3.800,9.288,1.327,-3.995,-0.549,1.160,0.061,160.7,-65.5,156.1
3.810,9.290,1.361,-3.974,-0.427,1.099,0.122,160.7,-65.5,156.1
3.820,9.276,1.375,-3.936,-0.244,1.465,0.122,160.7,-65.5,156.1
3.830,9.240,1.344,-3.930,-0.183,1.587,0.061,160.6,-65.5,156.2
3.840,9.279,1.378,-3.960,0.061,1.526,0.183,160.6,-65.5,156.2
3.850,9.254,1.398,-3.989,0.183,1.221,0.061,160.6,-65.6,156.2
3.860,9.252,1.398,-3.958,-0.183,1.099,0.122,160.6,-65.6,156.2
3.870,9.251,1.399,-3.935,-0.183,1.343,0.122,160.6,-65.6,156.2
3.880,9.264,1.401,-3.897,-0.183,1.038,0.061,160.6,-65.6,156.2
3.890,9.269,1.424,-3.999,-0.244,0.488,0.061,160.6,-65.6,156.2
3.900,9.269,1.410,-4.005,-0.244,0.671,0.000,160.6,-65.6,156.2
3.910,9.281,1.393,-3.928,-0.305,0.977,0.122,160.6,-65.6,156.2
3.920,9.282,1.402,-3.942,-0.366,1.160,0.061,160.6,-65.6,156.2
3.930,9.295,1.392,-3.958,-0.366,1.099,0.000,160.6,-65.7,156.2
3.940,9.272,1.427,-3.903,-0.366,0.854,0.000,160.6,-65.7,156.2
3.950,9.267,1.380,-3.950,-0.366,0.854,-0.061,160.6,-65.7,156.2
3.960,9.285,1.384,-3.865,-0.427,0.732,0.000,160.6,-65.7,156.2
3.970,9.221,1.363,-3.917,-0.244,0.610,-0.061,160.6,-65.7,156.2
3.980,9.271,1.349,-3.964,-0.183,0.488,0.000,160.6,-65.7,156.2
3.990,9.273,1.349,-3.946,-0.183,0.122,0.000,160.6,-65.7,156.2
4.000,9.283,1.381,-3.926,-0.183,0.122,-0.061,160.6,-65.7,156.2
4.010,9.269,1.361,-3.938,-0.183,0.183,-0.061,160.6,-65.7,156.2
4.020,9.290,1.379,-3.909,-0.061,0.366,-0.061,160.6,-65.7,156.2
4.030,9.278,1.371,-3.952,0.061,0.610,-0.122,160.6,-65.7,156.2
4.040,9.247,1.386,-3.947,0.061,0.549,-0.061,160.6,-65.7,156.2
4.050,9.239,1.412,-3.950,0.000,0.366,-0.061,160.6,-65.7,156.2
4.060,9.309,1.423,-3.908,-0.183,0.488,-0.061,160.6,-65.7,156.2
4.070,9.272,1.429,-3.946,-0.122,0.427,-0.061,160.6,-65.7,156.2
4.080,9.247,1.454,-3.893,-0.183,-0.122,-0.122,160.6,-65.7,156.2
4.090,9.253,1.409,-3.889,-0.183,-0.610,-0.122,160.6,-65.7,156.2
4.100,9.254,1.448,-3.916,-0.183,-0.916,-0.183,160.6,-65.7,156.2
4.110,9.255,1.367,-3.904,-0.183,-1.160,-0.244,160.6,-65.7,156.2
4.120,9.294,1.423,-3.935,-0.183,-1.160,-0.305,160.6,-65.7,156.2
4.130,9.228,1.408,-3.935,-0.366,-0.916,-0.244,160.6,-65.7,156.2
4.140,9.270,1.377,-3.903,-0.488,-0.549,-0.244,160.6,-65.7,156.2
4.150,9.269,1.355,-3.909,-0.488,-0.671,-0.244,160.6,-65.7,156.2
4.160,9.304,1.336,-3.868,-0.305,-0.793,-0.183,160.6,-65.7,156.2
4.170,9.275,1.409,-3.891,-0.122,-0.793,-0.244,160.6,-65.7,156.2
4.180,9.304,1.422,-3.887,0.000,-0.854,-0.122,160.6,-65.7,156.2
4.190,9.281,1.410,-4.003,0.000,-0.610,-0.183,160.6,-65.7,156.2
4.200,9.284,1.407,-3.965,0.061,-0.305,-0.183,160.6,-65.7,156.2
4.210,9.265,1.379,-3.869,0.061,-0.671,-0.366,160.6,-65.7,156.2
4.220,9.248,1.404,-3.891,0.000,-1.465,-0.549,160.6,-65.7,156.2
4.230,9.307,1.372,-3.904,0.000,-1.953,-0.549,160.6,-65.6,156.2
4.240,9.277,1.384,-3.939,0.000,-1.770,-0.488,160.6,-65.6,156.2
4.250,9.286,1.412,-4.035,-0.061,-1.160,-0.427,160.6,-65.6,156.2
4.260,9.266,1.415,-4.008,-0.122,-0.977,-0.366,160.6,-65.6,156.2
4.270,9.261,1.422,-3.942,-0.122,-1.160,-0.366,160.6,-65.6,156.2
4.280,9.267,1.386,-4.002,0.122,-1.038,-0.305,160.6,-65.6,156.2
4.290,9.224,1.407,-3.965,0.244,-0.793,-0.305,160.7,-65.6,156.2
4.300,9.229,1.380,-4.025,-0.061,-0.854,-0.305,160.7,-65.5,156.1
4.310,9.234,1.403,-3.945,-0.061,-1.160,-0.366,160.7,-65.5,156.1
4.320,9.255,1.416,-3.950,-0.183,-1.404,-0.427,160.7,-65.5,156.1
4.330,9.248,1.372,-3.956,-0.244,-1.587,-0.427,160.7,-65.5,156.1
4.340,9.261,1.401,-3.915,-0.305,-2.075,-0.488,160.7,-65.5,156.1
4.350,9.282,1.409,-3.941,-0.183,-2.319,-0.488,160.7,-65.5,156.1
4.360,9.304,1.414,-3.969,0.061,-2.197,-0.427,160.7,-65.5,156.1
4.370,9.302,1.395,-4.008,0.000,-1.892,-0.427,160.7,-65.4,156.1
4.380,9.309,1.408,-3.995,0.061,-1.648,-0.366,160.7,-65.4,156.1
4.390,9.269,1.396,-4.074,0.000,-1.038,-0.366,160.7,-65.4,156.1
4.400,9.297,1.383,-4.027,-0.122,-0.549,-0.305,160.7,-65.4,156.1
4.410,9.260,1.420,-3.952,-0.183,-0.366,-0.305,160.7,-65.4,156.1
4.420,9.242,1.366,-3.960,-0.122,-0.488,-0.305,160.7,-65.4,156.1
4.430,9.258,1.366,-3.923,-0.183,-0.977,-0.244,160.7,-65.4,156.1
4.440,9.225,1.380,-3.958,-0.183,-1.404,-0.305,160.7,-65.4,156.1
4.450,9.241,1.390,-3.982,-0.061,-1.526,-0.366,160.7,-65.4,156.1
4.460,9.259,1.404,-3.978,-0.122,-1.587,-0.427,160.7,-65.3,156.1
4.470,9.222,1.399,-4.003,-0.183,-1.770,-0.366,160.8,-65.3,156.1
4.480,9.233,1.426,-4.031,-0.183,-1.770,-0.427,160.8,-65.3,156.1
4.490,9.267,1.429,-4.096,-0.122,-1.587,-0.305,160.8,-65.3,156.0
4.500,9.306,1.408,-4.027,-0.122,-1.404,-0.244,160.8,-65.3,156.0
4.510,9.230,1.418,-4.061,-0.061,-1.160,-0.305,160.8,-65.3,156.0
4.520,9.278,1.403,-4.018,-0.122,-0.793,-0.244,160.8,-65.2,156.0
4.530,9.265,1.417,-3.987,-0.183,-0.793,-0.305,160.8,-65.2,156.0
4.540,9.263,1.416,-4.011,-0.183,-1.099,-0.244,160.8,-65.2,156.0
4.550,9.313,1.380,-4.023,-0.183,-1.160,-0.244,160.8,-65.2,156.0
4.560,9.263,1.430,-3.962,-0.122,-0.793,-0.244,160.8,-65.2,156.0
4.570,9.259,1.392,-3.993,-0.061,-0.793,-0.183,160.8,-65.2,156.0
4.580,9.251,1.411,-3.963,0.000,-1.282,-0.244,160.8,-65.2,156.0
4.590,9.254,1.386,-4.020,-0.061,-1.282,-0.183,160.8,-65.2,156.0
4.600,9.267,1.381,-4.036,-0.122,-1.221,-0.122,160.8,-65.2,156.0
4.610,9.303,1.399,-4.078,-0.122,-1.099,-0.122,160.8,-65.2,156.0
4.620,9.279,1.417,-4.024,0.000,-0.793,-0.122,160.9,-65.2,156.0
4.630,9.266,1.398,-4.062,0.000,-0.427,-0.061,160.9,-65.1,156.0
4.640,9.254,1.398,-4.063,-0.061,-0.122,0.000,160.9,-65.1,156.0
4.650,9.271,1.401,-4.066,-0.061,0.000,-0.061,160.9,-65.1,156.0
4.660,9.221,1.411,-4.088,-0.183,-0.122,-0.122,160.9,-65.1,156.0
4.670,9.188,1.391,-4.025,-0.183,-0.122,-0.061,160.9,-65.1,155.9
4.680,9.224,1.393,-3.985,-0.183,-0.244,-0.122,160.9,-65.1,155.9
4.690,9.239,1.399,-4.047,-0.122,-0.488,-0.183,160.9,-65.1,155.9
4.700,9.267,1.421,-4.025,-0.061,-0.671,-0.122,160.9,-65.1,155.9
4.710,9.271,1.432,-4.098,-0.061,-0.427,-0.183,160.9,-65.1,155.9
4.720,9.330,1.384,-3.990,0.000,0.000,-0.122,160.9,-65.1,155.9
4.730,9.265,1.385,-4.026,0.061,0.000,-0.122,160.9,-65.1,155.9
4.740,9.296,1.417,-3.975,0.183,0.000,-0.122,160.9,-65.1,155.9
4.750,9.309,1.383,-4.057,0.366,-0.061,-0.122,160.9,-65.1,155.9
4.760,9.301,1.414,-4.099,0.427,0.183,-0.122,160.9,-65.1,155.9
4.770,9.266,1.393,-4.124,0.305,0.549,0.000,160.9,-65.1,155.9
4.780,9.301,1.429,-4.134,0.366,1.099,0.122,160.9,-65.1,155.9
4.790,9.193,1.427,-4.152,0.244,1.770,0.244,160.9,-65.2,155.9
4.800,9.247,1.436,-4.117,-0.122,1.953,0.305,160.9,-65.2,155.9
4.810,9.243,1.416,-4.029,-0.183,1.953,0.305,160.9,-65.2,156.0
4.820,9.281,1.397,-4.023,-0.183,2.380,0.488,160.9,-65.2,156.0
4.830,9.364,1.411,-3.997,-0.183,2.930,0.488,160.9,-65.2,156.0
4.840,9.445,1.393,-3.878,-0.061,3.601,0.549,160.9,-65.3,156.0
4.850,9.518,1.410,-3.871,0.610,4.089,0.610,160.9,-65.3,156.0
4.860,9.430,1.423,-3.897,1.404,4.395,0.427,160.9,-65.4,156.0
4.870,9.411,1.433,-3.924,1.770,4.883,0.366,160.9,-65.4,156.1
4.880,9.376,1.429,-3.851,1.648,4.639,0.061,160.9,-65.5,156.1
4.890,9.350,1.359,-3.874,0.977,3.784,-0.122,160.8,-65.5,156.1
4.900,9.398,1.392,-3.861,0.854,3.052,-0.427,160.8,-65.6,156.2
4.910,9.496,1.317,-3.850,1.160,1.099,-0.610,160.8,-65.6,156.2
4.920,9.611,1.318,-3.988,1.038,-0.549,-0.488,160.8,-65.6,156.2
4.930,9.571,1.386,-4.203,1.099,0.000,0.000,160.8,-65.6,156.2
4.940,9.539,1.490,-4.260,0.305,1.648,0.793,160.8,-65.6,156.2
4.950,9.473,1.471,-4.311,-0.183,4.028,1.892,160.9,-65.6,156.2
4.960,9.350,1.456,-4.267,-0.122,6.348,2.441,160.9,-65.7,156.2
4.970,9.386,1.547,-4.073,-0.305,6.348,2.380,160.9,-65.8,156.1
4.980,9.571,1.459,-4.029,0.061,4.456,1.587,160.9,-65.8,156.1
4.990,9.411,1.591,-4.078,-0.183,2.563,0.854,160.9,-65.8,156.2
5.000,9.520,1.551,-4.123,0.122,4.089,0.854,160.8,-65.9,156.2
5.010,9.683,1.417,-4.079,0.732,4.944,1.221,160.8,-65.9,156.2
5.020,9.632,1.384,-4.102,0.854,5.554,1.404,160.8,-66.0,156.2
5.030,9.603,1.427,-4.099,0.793,4.089,1.770,160.9,-66.0,156.2
5.040,9.555,1.365,-4.209,1.709,3.601,2.319,160.9,-66.1,156.2
5.050,9.607,1.404,-4.412,2.014,4.639,2.441,161.0,-66.1,156.1
5.060,9.695,1.347,-4.535,0.122,6.165,2.563,161.0,-66.2,156.1
5.070,9.691,1.450,-4.565,0.122,9.338,2.380,161.0,-66.2,156.1
5.080,9.606,1.384,-4.606,-0.183,12.573,2.502,161.0,-66.3,156.1
5.090,9.456,1.393,-4.579,-0.793,15.869,2.625,161.0,-66.5,156.1
5.100,9.583,1.469,-4.311,-0.183,19.959,3.540,160.9,-66.6,156.2
5.110,9.585,1.412,-4.158,-0.061,18.433,3.174,160.8,-66.8,156.3
5.120,9.625,1.452,-4.042,0.854,17.273,3.357,160.8,-67.0,156.3
5.130,9.643,1.436,-4.115,1.526,15.991,3.540,160.8,-67.1,156.4
5.140,9.966,1.457,-4.161,1.526,16.052,4.517,160.7,-67.3,156.4
5.150,9.896,1.223,-4.522,1.221,17.578,4.272,160.7,-67.4,156.4
5.160,9.956,1.213,-4.446,-0.183,21.545,4.944,160.7,-67.6,156.5
5.170,9.983,1.196,-4.523,-0.366,25.452,5.310,160.7,-67.9,156.5
5.180,9.867,1.149,-4.383,-1.831,29.724,5.615,160.6,-68.1,156.6
5.190,9.813,1.172,-4.300,-2.319,33.752,6.348,160.5,-68.4,156.7
5.200,9.826,1.342,-3.993,-3.174,37.415,6.348,160.4,-68.8,156.8
5.210,9.784,1.507,-3.838,-2.808,39.795,6.775,160.2,-69.2,157.0
5.220,9.981,1.282,-3.764,-2.075,40.771,7.202,159.9,-69.5,157.2
5.230,9.746,1.292,-3.780,-3.723,43.335,7.141,159.7,-70.0,157.4
5.240,9.801,1.152,-3.586,-5.493,44.067,7.019,159.4,-70.4,157.7
5.250,9.975,1.159,-3.338,-6.836,43.579,6.592,159.1,-70.8,157.9
5.260,10.093,1.110,-3.203,-5.310,42.175,5.554,158.8,-71.2,158.2
5.270,9.960,0.986,-3.353,-4.517,42.664,5.737,158.5,-71.6,158.5
5.280,10.041,1.070,-3.248,-4.944,44.495,6.287,158.2,-72.1,158.8
5.290,10.268,1.268,-3.233,-3.174,42.908,6.226,157.8,-72.5,159.1
5.300,10.357,1.286,-3.455,-3.357,42.725,7.080,157.5,-72.9,159.4
5.310,10.239,1.327,-3.553,-1.587,50.232,8.118,157.1,-73.4,159.8
5.320,10.324,1.178,-3.601,-2.319,54.626,8.484,156.7,-73.9,160.2
5.330,11.101,1.427,-3.146,-4.517,53.284,8.484,156.2,-74.4,160.7
5.340,10.974,1.501,-3.341,-4.944,52.490,7.935,155.6,-74.8,161.2
5.350,11.220,1.673,-3.504,-3.296,58.411,9.033,155.0,-75.4,161.8
5.360,10.118,1.524,-4.233,-5.188,71.777,11.658,154.3,-76.0,162.5
5.370,10.615,1.666,-2.773,-5.310,88.257,13.916,153.2,-76.7,163.6
5.380,11.155,2.187,-1.998,-7.874,77.698,17.273,152.0,-77.5,164.7
5.390,10.237,0.666,-2.877,-6.165,77.881,18.066,150.9,-78.2,165.8
5.400,9.836,0.870,-2.356,-6.470,87.402,13.977,149.6,-79.0,167.1
5.410,10.197,1.108,-2.103,-11.841,75.928,11.292,147.9,-79.7,168.7
5.420,10.567,0.937,-1.934,-10.498,73.792,10.498,146.1,-80.4,170.4
5.430,9.987,1.130,-2.274,-5.615,78.918,9.644,143.9,-81.1,172.6
5.440,10.233,0.964,-2.038,-5.920,81.909,8.789,141.2,-81.7,175.3
5.450,10.211,1.153,-1.880,-9.094,80.688,7.141,137.9,-82.4,178.5
5.460,10.643,1.120,-1.529,-7.996,84.900,6.226,133.8,-83.0,-177.4
5.470,11.069,0.833,-1.120,-6.775,86.365,4.822,128.6,-83.6,-172.3
5.480,11.242,1.046,-1.157,-5.493,84.229,4.456,122.6,-84.1,-166.3
5.490,11.866,1.034,-1.116,-4.944,83.496,5.981,115.6,-84.6,-159.3
5.500,12.095,1.385,-1.354,-3.052,84.045,7.324,107.7,-84.9,-151.4
5.510,11.897,1.350,-1.697,-1.831,88.623,8.850,98.7,-85.2,-142.3
5.520,11.506,1.508,-1.703,-3.113,94.238,9.521,88.4,-85.3,-132.1
5.530,11.463,1.476,-0.949,-6.042,99.609,9.216,77.2,-85.3,-120.9
5.540,11.305,1.326,-0.084,-9.766,102.356,8.057,66.0,-85.0,-109.7
5.550,11.131,1.345,0.408,-10.315,102.905,7.202,55.9,-84.6,-99.6
5.560,11.168,1.074,0.595,-11.597,100.098,6.714,47.6,-84.0,-91.4
5.570,11.038,0.935,0.344,-11.780,99.609,7.263,40.9,-83.3,-84.8
5.580,10.985,0.704,0.371,-11.963,102.905,9.155,35.3,-82.6,-79.3
5.590,10.783,0.926,0.628,-11.414,107.056,12.695,30.4,-81.8,-74.4
5.600,11.165,0.747,1.214,-11.108,110.291,16.602,26.0,-80.9,-70.1
5.610,11.218,0.721,1.463,-10.376,108.276,18.066,22.3,-80.0,-66.5
5.620,11.195,0.785,1.397,-11.963,103.760,18.738,19.2,-79.1,-63.5
5.630,11.094,0.840,1.217,-16.357,102.356,18.677,16.7,-78.2,-61.0
5.640,10.755,1.003,1.329,-17.578,108.154,18.311,14.5,-77.3,-58.9
5.650,10.522,0.786,1.956,-17.761,114.502,17.944,12.5,-76.3,-57.1
5.660,10.080,0.384,2.576,-19.104,112.793,17.090,10.8,-75.2,-55.5
5.670,9.713,0.037,3.091,-20.386,103.210,15.686,9.3,-74.2,-54.2
5.680,9.241,-0.083,3.331,-19.043,91.736,14.587,8.0,-73.3,-53.1
5.690,8.838,-0.566,3.450,-15.381,81.116,13.916,7.0,-72.4,-52.1
5.700,8.700,-0.781,3.477,-10.193,71.167,12.573,6.0,-71.7,-51.3
5.710,8.890,-0.852,3.687,-7.446,62.500,10.803,5.3,-71.0,-50.6
5.720,9.221,-0.750,3.749,-3.723,55.359,8.484,4.7,-70.5,-50.0
5.730,9.521,-0.500,3.562,-0.977,51.392,6.165,4.2,-69.9,-49.6
5.740,9.871,-0.362,3.729,-0.854,50.110,4.211,3.9,-69.4,-49.2
5.750,10.232,0.054,3.791,-0.610,49.377,2.380,3.7,-68.9,-49.0
5.760,10.479,0.213,3.944,-0.183,47.668,0.793,3.5,-68.5,-48.9
5.770,10.507,0.165,4.017,0.793,43.884,-0.244,3.5,-68.0,-48.8
5.780,10.382,0.022,4.050,1.831,38.818,-0.610,3.4,-67.6,-48.7
5.790,10.063,-0.082,3.956,2.502,33.020,-0.549,3.4,-67.3,-48.6
5.800,9.930,-0.114,3.835,2.930,26.184,-0.122,3.3,-67.0,-48.6
5.810,9.874,0.048,3.449,4.211,22.644,0.061,3.3,-66.8,-48.5
5.820,9.796,0.019,3.154,5.005,22.949,-1.099,3.3,-66.6,-48.5
5.830,9.531,0.166,3.161,5.920,27.405,-2.014,3.4,-66.4,-48.5
5.840,9.295,0.135,3.376,6.348,31.616,-2.563,3.4,-66.1,-48.5
5.850,8.982,0.133,3.544,7.324,33.081,-3.418,3.5,-65.8,-48.5
5.860,8.677,0.367,3.797,7.690,31.128,-4.089,3.6,-65.5,-48.5
