time,acc_x,acc_y,acc_z,gyro_x,gyro_y,gyro_z,roll,pitch,yaw
1.120,9.687,0.432,-2.972,8.789,19.653,21.790,174.0,-73.1,156.3
1.130,9.710,0.429,-2.952,8.911,20.081,21.606,174.0,-73.0,156.2
1.140,9.794,0.415,-2.872,9.460,20.020,21.423,174.0,-72.9,156.1
1.150,9.726,0.397,-2.946,9.644,19.714,21.240,174.1,-72.8,156.1
1.160,9.614,0.370,-3.019,9.705,20.325,21.484,174.1,-72.8,156.0
1.170,9.616,0.324,-2.951,10.254,20.874,21.545,174.1,-72.7,155.9
1.180,9.660,0.324,-2.872,10.803,20.813,21.667,174.2,-72.6,155.8
1.190,9.646,0.339,-2.925,10.559,19.470,21.606,174.2,-72.5,155.8
1.200,9.750,0.321,-2.950,10.986,18.555,21.606,174.3,-72.4,155.7
1.210,9.635,0.399,-3.121,11.169,19.043,21.423,174.3,-72.3,155.6
1.220,9.665,0.311,-3.095,10.437,20.020,21.667,174.4,-72.3,155.5
1.230,9.599,0.292,-3.132,9.827,20.935,21.851,174.4,-72.2,155.4
1.240,9.581,0.413,-3.025,9.705,21.423,22.156,174.5,-72.1,155.3
1.250,9.583,0.438,-2.946,9.521,20.569,22.339,174.5,-72.0,155.2
1.260,9.667,0.443,-3.076,9.338,19.470,22.339,174.6,-72.0,155.2
1.270,9.672,0.430,-3.168,9.216,19.043,22.034,174.6,-71.9,155.1
1.280,9.637,0.373,-3.276,8.667,19.714,21.973,174.7,-71.8,155.0
1.290,9.567,0.290,-3.197,9.155,20.996,22.034,174.7,-71.7,154.9
1.300,9.549,0.279,-3.033,9.338,20.935,22.156,174.7,-71.6,154.8
1.310,9.524,0.239,-3.054,10.132,20.142,22.461,174.8,-71.6,154.7
1.320,9.522,0.279,-3.069,10.559,17.944,22.400,174.9,-71.5,154.6
1.330,9.679,0.323,-3.162,11.108,16.052,22.339,175.0,-71.4,154.5
1.340,9.710,0.391,-3.422,11.169,15.869,22.095,175.0,-71.2,154.4
1.350,9.743,0.305,-3.454,10.254,17.334,21.973,175.1,-71.1,154.3
1.360,9.733,0.335,-3.538,9.460,19.470,21.973,175.1,-71.0,154.2
1.370,9.691,0.332,-3.398,9.460,22.217,21.912,175.2,-70.9,154.1
1.380,9.668,0.297,-3.206,9.399,23.376,21.973,175.2,-70.9,154.1
1.390,9.647,0.279,-3.179,9.644,22.522,21.851,175.2,-70.9,154.0
1.400,9.607,0.239,-3.120,10.071,20.935,21.606,175.3,-70.8,153.9
1.410,9.553,0.257,-3.320,10.376,20.203,21.851,175.3,-70.7,153.8
1.420,9.552,0.231,-3.465,10.071,20.020,22.156,175.4,-70.6,153.8
1.430,9.582,0.241,-3.490,10.376,21.057,22.644,175.5,-70.6,153.7
1.440,9.559,0.243,-3.460,10.254,21.973,22.827,175.5,-70.5,153.5
1.450,9.612,0.139,-3.419,10.376,22.888,22.949,175.6,-70.4,153.4
1.460,9.534,0.174,-3.358,10.559,23.071,22.583,175.7,-70.4,153.3
1.470,9.509,0.133,-3.412,10.925,22.522,22.278,175.7,-70.3,153.2
1.480,9.568,0.194,-3.362,10.925,21.362,21.973,175.8,-70.3,153.1
1.490,9.607,0.182,-3.409,11.414,20.996,21.729,175.9,-70.2,153.1
1.500,9.668,0.213,-3.503,11.963,20.996,21.423,175.9,-70.1,153.0
1.510,9.583,0.209,-3.470,12.329,21.851,21.362,176.0,-70.1,152.9
1.520,9.562,0.290,-3.486,12.329,22.217,21.423,176.0,-70.0,152.9
1.530,9.541,0.291,-3.516,12.451,22.583,21.667,176.1,-69.9,152.8
1.540,9.561,0.299,-3.495,12.512,22.949,21.667,176.1,-69.9,152.7
1.550,9.593,0.296,-3.549,12.512,22.583,21.606,176.2,-69.8,152.7
1.560,9.607,0.308,-3.573,12.268,22.705,21.423,176.2,-69.8,152.6
1.570,9.597,0.253,-3.513,12.573,23.743,21.240,176.2,-69.7,152.6
1.580,9.567,0.221,-3.511,12.451,24.231,20.996,176.3,-69.7,152.6
1.590,9.563,0.174,-3.473,13.123,24.231,20.691,176.3,-69.6,152.5
1.600,9.559,0.152,-3.377,13.550,23.621,20.325,176.3,-69.6,152.5
1.610,9.594,0.175,-3.442,13.977,22.644,19.959,176.4,-69.5,152.5
1.620,9.559,0.188,-3.563,14.221,22.583,19.897,176.4,-69.5,152.4
1.630,9.592,0.221,-3.661,14.038,23.132,19.897,176.4,-69.4,152.4
1.640,9.569,0.237,-3.625,13.977,24.170,19.897,176.4,-69.4,152.4
1.650,9.546,0.205,-3.616,14.160,25.024,19.897,176.5,-69.4,152.4
1.660,9.513,0.242,-3.534,14.404,25.452,20.081,176.5,-69.3,152.4
1.670,9.488,0.226,-3.598,14.160,25.208,20.203,176.5,-69.3,152.4
1.680,9.507,0.175,-3.656,14.343,24.719,20.264,176.5,-69.3,152.4
1.690,9.496,0.140,-3.623,14.893,24.902,20.264,176.6,-69.2,152.4
1.700,9.477,0.156,-3.672,15.137,25.085,20.081,176.6,-69.2,152.3
1.710,9.474,0.189,-3.699,15.259,24.902,19.897,176.7,-69.1,152.3
1.720,9.476,0.195,-3.729,15.076,24.780,19.775,176.7,-69.1,152.3
1.730,9.490,0.175,-3.683,14.832,25.085,19.470,176.7,-69.1,152.3
1.740,9.521,0.213,-3.599,15.076,26.062,19.287,176.7,-69.0,152.3
1.750,9.543,0.198,-3.557,15.442,26.428,19.165,176.7,-69.0,152.3
1.760,9.541,0.196,-3.547,15.869,26.428,19.287,176.7,-69.0,152.3
1.770,9.571,0.171,-3.683,15.991,26.550,19.287,176.7,-69.0,152.4
1.780,9.562,0.194,-3.647,16.541,27.588,19.348,176.8,-69.0,152.4
1.790,9.549,0.153,-3.625,16.724,28.137,19.287,176.8,-69.0,152.4
1.800,9.540,0.218,-3.673,16.418,28.381,19.226,176.8,-69.0,152.4
1.810,9.539,0.207,-3.709,16.357,28.381,19.226,176.8,-69.0,152.4
1.820,9.553,0.223,-3.674,16.174,28.687,19.348,176.9,-69.0,152.4
1.830,9.551,0.293,-3.665,16.113,28.992,19.348,176.9,-69.0,152.4
1.840,9.553,0.302,-3.687,15.686,29.358,19.470,176.9,-69.0,152.5
1.850,9.508,0.316,-3.686,15.442,29.541,19.226,176.9,-69.0,152.5
1.860,9.537,0.271,-3.671,15.015,29.663,19.165,176.8,-69.0,152.5
1.870,9.532,0.214,-3.614,14.709,29.419,19.104,176.8,-69.0,152.6
1.880,9.544,0.176,-3.595,14.832,29.297,19.043,176.8,-69.0,152.6
1.890,9.495,0.194,-3.650,15.381,29.053,18.982,176.8,-69.0,152.6
1.900,9.495,0.235,-3.727,15.259,28.870,19.104,176.8,-69.0,152.6
1.910,9.509,0.225,-3.774,14.893,29.236,19.226,176.8,-69.0,152.7
1.920,9.509,0.247,-3.760,14.648,30.334,19.226,176.8,-69.0,152.7
1.930,9.534,0.205,-3.677,14.587,31.433,19.348,176.8,-69.1,152.7
1.940,9.551,0.209,-3.594,14.709,31.738,19.348,176.8,-69.1,152.7
1.950,9.558,0.266,-3.555,14.587,31.311,19.287,176.8,-69.1,152.8
1.960,9.555,0.255,-3.604,14.526,30.884,19.287,176.8,-69.2,152.8
1.970,9.579,0.280,-3.638,14.465,30.701,19.348,176.8,-69.2,152.8
1.980,9.515,0.260,-3.689,14.282,30.762,19.470,176.8,-69.2,152.8
1.990,9.500,0.230,-3.656,13.733,31.189,19.409,176.7,-69.2,152.9
2.000,9.533,0.238,-3.648,13.794,31.860,19.531,176.7,-69.3,152.9
2.010,9.476,0.267,-3.550,13.733,31.982,19.348,176.7,-69.3,152.9
2.020,9.465,0.285,-3.477,13.916,31.311,19.348,176.7,-69.3,152.9
2.030,9.468,0.296,-3.515,14.221,30.029,19.165,176.7,-69.4,153.0
2.040,9.524,0.345,-3.516,14.343,29.358,19.043,176.7,-69.4,153.0
2.050,9.534,0.391,-3.711,14.404,29.114,19.104,176.6,-69.4,153.0
2.060,9.601,0.344,-3.654,14.099,29.419,19.226,176.6,-69.4,153.1
2.070,9.544,0.269,-3.727,14.038,30.212,19.348,176.6,-69.4,153.1
2.080,9.585,0.221,-3.598,14.099,31.372,19.531,176.6,-69.4,153.1
2.090,9.551,0.157,-3.574,14.038,31.982,19.592,176.6,-69.4,153.1
2.100,9.479,0.169,-3.494,13.794,32.166,19.775,176.6,-69.5,153.2
2.110,9.500,0.266,-3.571,13.855,31.860,19.897,176.6,-69.5,153.2
2.120,9.492,0.335,-3.526,13.611,31.433,20.081,176.6,-69.6,153.2
2.130,9.518,0.379,-3.492,13.672,31.128,20.020,176.6,-69.6,153.2
2.140,9.503,0.394,-3.538,13.367,31.006,19.959,176.5,-69.6,153.2
2.150,9.540,0.293,-3.496,13.489,31.128,19.836,176.5,-69.6,153.2
2.160,9.558,0.223,-3.431,13.794,31.250,19.653,176.5,-69.7,153.2
2.170,9.490,0.189,-3.387,14.526,30.579,19.226,176.5,-69.7,153.3
2.180,9.515,0.206,-3.353,15.076,29.419,19.104,176.5,-69.7,153.3
2.190,9.486,0.220,-3.529,15.564,28.687,18.921,176.5,-69.7,153.3
2.200,9.500,0.226,-3.562,15.625,29.236,19.165,176.5,-69.7,153.3
2.210,9.494,0.320,-3.674,14.893,29.724,19.470,176.5,-69.7,153.4
2.220,9.557,0.309,-3.600,14.221,29.907,19.836,176.5,-69.7,153.4
2.230,9.579,0.323,-3.535,13.611,30.823,20.020,176.5,-69.8,153.4
2.240,9.563,0.290,-3.497,13.245,31.616,20.142,176.5,-69.8,153.4
2.250,9.582,0.247,-3.452,12.634,31.433,20.142,176.5,-69.8,153.4
2.260,9.573,0.229,-3.437,12.451,30.640,19.959,176.5,-69.8,153.4
2.270,9.555,0.225,-3.431,12.695,30.212,19.836,176.4,-69.9,153.4
2.280,9.539,0.223,-3.491,13.123,30.029,19.836,176.4,-69.9,153.4
2.290,9.564,0.226,-3.561,13.367,29.968,19.836,176.4,-69.9,153.4
2.300,9.497,0.215,-3.494,13.428,30.334,19.897,176.4,-69.9,153.4
2.310,9.497,0.235,-3.529,13.489,30.701,19.959,176.4,-69.9,153.4
2.320,9.503,0.229,-3.492,13.123,30.396,20.081,176.4,-70.0,153.4
2.330,9.476,0.304,-3.434,12.756,29.663,19.897,176.4,-70.0,153.4
2.340,9.484,0.309,-3.430,12.634,29.053,19.897,176.4,-70.0,153.4
2.350,9.479,0.322,-3.447,12.817,28.687,19.897,176.4,-70.0,153.4
2.360,9.502,0.296,-3.462,12.634,28.015,19.897,176.4,-70.0,153.4
2.370,9.525,0.323,-3.561,12.390,27.466,19.897,176.4,-70.0,153.5
2.380,9.546,0.310,-3.604,12.390,27.649,20.020,176.4,-70.0,153.5
2.390,9.598,0.257,-3.564,12.512,28.442,19.959,176.3,-70.0,153.5
2.400,9.605,0.260,-3.482,12.512,29.358,20.142,176.3,-70.0,153.5
2.410,9.582,0.201,-3.438,12.634,29.846,20.020,176.3,-70.0,153.5
2.420,9.559,0.221,-3.428,12.878,29.724,19.897,176.3,-70.0,153.5
2.430,9.556,0.247,-3.452,13.062,29.541,19.775,176.3,-70.0,153.5
2.440,9.532,0.247,-3.331,12.817,29.297,19.775,176.3,-70.0,153.5
2.450,9.525,0.274,-3.455,12.695,28.625,19.714,176.3,-70.0,153.5
2.460,9.532,0.328,-3.419,12.573,28.564,19.836,176.3,-70.0,153.5
2.470,9.537,0.344,-3.450,12.634,28.625,19.897,176.3,-70.0,153.5
2.480,9.504,0.326,-3.361,12.329,28.564,20.142,176.2,-70.0,153.5
2.490,9.519,0.315,-3.440,11.902,28.320,20.142,176.2,-70.0,153.5
2.500,9.537,0.310,-3.409,11.963,28.198,20.264,176.2,-70.0,153.5
2.510,9.543,0.253,-3.423,12.024,27.832,20.203,176.2,-70.0,153.5
2.520,9.557,0.263,-3.453,12.146,27.527,20.081,176.2,-70.0,153.5
2.530,9.605,0.200,-3.485,12.329,27.649,19.897,176.2,-70.0,153.5
2.540,9.541,0.190,-3.592,12.573,27.954,19.836,176.2,-70.0,153.5
2.550,9.547,0.206,-3.526,12.878,28.564,19.836,176.2,-70.0,153.5
2.560,9.504,0.218,-3.464,13.123,29.297,19.897,176.2,-70.0,153.5
2.570,9.502,0.259,-3.423,13.123,29.541,19.897,176.2,-70.0,153.5
2.580,9.552,0.286,-3.417,13.123,29.297,19.897,176.2,-70.0,153.5
2.590,9.577,0.298,-3.467,13.062,28.625,19.897,176.2,-70.0,153.5
2.600,9.534,0.327,-3.507,12.634,28.625,20.020,176.2,-70.0,153.5
2.610,9.537,0.308,-3.556,12.329,28.931,20.081,176.2,-70.1,153.5
2.620,9.488,0.286,-3.485,11.963,29.053,19.959,176.1,-70.1,153.5
2.630,9.512,0.266,-3.484,11.963,28.687,19.897,176.1,-70.1,153.5
2.640,9.520,0.224,-3.386,12.146,28.015,19.775,176.1,-70.1,153.5
2.650,9.522,0.261,-3.528,12.634,27.893,19.653,176.1,-70.1,153.5
2.660,9.512,0.254,-3.498,12.817,28.015,19.653,176.1,-70.0,153.5
2.670,9.563,0.274,-3.558,13.000,28.076,19.531,176.1,-70.0,153.6
2.680,9.547,0.304,-3.525,13.000,28.381,19.592,176.1,-70.0,153.6
2.690,9.575,0.335,-3.494,13.123,28.687,19.897,176.0,-70.0,153.6
2.700,9.512,0.328,-3.441,12.939,28.809,19.836,176.0,-70.0,153.6
2.710,9.544,0.318,-3.436,12.695,28.992,19.897,176.0,-70.0,153.6
2.720,9.519,0.290,-3.376,12.756,28.809,19.836,176.0,-70.1,153.6
2.730,9.588,0.251,-3.407,12.878,28.687,19.775,176.0,-70.1,153.6
2.740,9.555,0.229,-3.391,12.939,28.381,19.775,176.0,-70.1,153.6
2.750,9.529,0.244,-3.477,13.123,28.381,19.714,176.0,-70.1,153.6
2.760,9.527,0.205,-3.404,13.428,28.625,19.714,176.0,-70.1,153.6
2.770,9.535,0.220,-3.438,13.428,28.809,19.836,176.0,-70.1,153.6
2.780,9.539,0.304,-3.513,13.550,28.992,19.836,176.0,-70.1,153.6
2.790,9.525,0.250,-3.476,13.550,29.114,19.897,176.0,-70.1,153.6
2.800,9.509,0.306,-3.479,13.428,28.809,19.775,176.0,-70.1,153.6
2.810,9.504,0.357,-3.458,13.245,28.870,19.714,176.0,-70.1,153.7
2.820,9.498,0.326,-3.480,13.184,29.053,19.775,175.9,-70.1,153.7
2.830,9.524,0.362,-3.458,13.123,28.992,19.714,175.9,-70.1,153.7
2.840,9.515,0.279,-3.357,13.000,28.381,19.592,175.9,-70.1,153.7
2.850,9.537,0.314,-3.453,13.123,27.954,19.592,175.9,-70.1,153.7
2.860,9.526,0.225,-3.485,13.184,27.832,19.714,175.9,-70.1,153.7
2.870,9.534,0.302,-3.523,13.428,27.954,19.836,175.9,-70.1,153.7
2.880,9.538,0.316,-3.497,13.550,28.137,19.897,175.9,-70.1,153.7
2.890,9.539,0.327,-3.558,13.611,28.259,19.897,175.9,-70.1,153.8
2.900,9.507,0.321,-3.511,13.428,28.320,19.959,175.9,-70.1,153.8
2.910,9.513,0.330,-3.459,13.123,28.625,20.020,175.9,-70.1,153.8
2.920,9.514,0.312,-3.399,13.000,28.992,20.020,175.9,-70.1,153.8
2.930,9.521,0.278,-3.339,12.939,28.687,19.897,175.9,-70.1,153.8
2.940,9.539,0.285,-3.385,12.939,27.832,19.897,175.8,-70.1,153.8
2.950,9.574,0.244,-3.407,13.184,27.771,19.897,175.8,-70.1,153.8
2.960,9.539,0.259,-3.490,13.428,28.015,19.959,175.9,-70.1,153.8
2.970,9.543,0.261,-3.483,13.489,28.320,20.081,175.9,-70.1,153.8
2.980,9.545,0.304,-3.497,13.611,28.687,20.142,175.9,-70.1,153.8
2.990,9.526,0.296,-3.476,13.794,28.809,20.203,175.9,-70.1,153.8
3.000,9.521,0.296,-3.454,13.916,28.687,20.081,175.9,-70.1,153.8
3.010,9.519,0.291,-3.473,13.733,28.503,19.959,175.9,-70.1,153.8
3.020,9.529,0.229,-3.417,13.489,28.259,19.836,175.9,-70.1,153.8
3.030,9.519,0.241,-3.423,13.611,27.832,19.836,175.9,-70.1,153.8
3.040,9.518,0.255,-3.470,13.489,27.710,19.836,175.9,-70.1,153.8
3.050,9.549,0.284,-3.528,13.367,27.771,19.897,175.9,-70.0,153.8
3.060,9.532,0.268,-3.540,13.428,28.015,20.020,175.9,-70.0,153.8
3.070,9.479,0.306,-3.465,13.489,28.259,20.081,175.9,-70.0,153.8
3.080,9.467,0.263,-3.429,13.367,28.076,20.142,175.9,-70.0,153.8
3.090,9.458,0.293,-3.515,13.123,27.832,20.081,175.9,-70.0,153.8
3.100,9.472,0.308,-3.470,13.184,27.588,20.081,175.9,-70.0,153.7
3.110,9.477,0.316,-3.488,13.306,27.649,20.142,175.9,-70.0,153.7
3.120,9.501,0.302,-3.449,13.184,27.527,20.020,175.9,-70.0,153.7
3.130,9.573,0.274,-3.459,13.123,26.855,19.836,175.9,-70.0,153.7
3.140,9.546,0.282,-3.429,13.123,26.672,19.836,175.9,-70.0,153.8
3.150,9.522,0.251,-3.489,13.245,26.855,19.897,175.9,-69.9,153.8
3.160,9.546,0.274,-3.454,13.184,27.161,19.959,175.9,-69.9,153.8
3.170,9.524,0.281,-3.501,13.245,27.039,20.020,175.9,-69.9,153.7
3.180,9.513,0.299,-3.450,13.184,27.100,19.959,175.9,-69.9,153.7
3.190,9.533,0.345,-3.545,13.245,27.344,20.081,175.9,-69.9,153.7
3.200,9.547,0.324,-3.470,13.306,27.588,20.203,176.0,-69.9,153.7
3.210,9.477,0.309,-3.522,13.184,27.649,20.203,176.0,-69.9,153.7
3.220,9.471,0.287,-3.498,12.878,27.527,20.203,176.0,-69.9,153.7
3.230,9.472,0.281,-3.443,12.756,27.283,20.203,176.0,-69.8,153.7
3.240,9.507,0.269,-3.465,13.000,26.611,20.081,176.0,-69.8,153.7
3.250,9.489,0.254,-3.505,13.123,25.940,19.959,176.0,-69.8,153.7
3.260,9.537,0.263,-3.490,13.245,26.001,19.959,176.0,-69.8,153.7
3.270,9.551,0.267,-3.476,13.367,26.184,19.897,176.0,-69.8,153.7
3.280,9.535,0.277,-3.544,13.428,26.489,19.897,176.0,-69.7,153.7
3.290,9.544,0.297,-3.558,13.489,26.611,19.897,176.0,-69.7,153.7
3.300,9.538,0.304,-3.521,13.245,26.855,20.020,176.0,-69.7,153.7
3.310,9.495,0.320,-3.544,13.123,27.039,20.203,176.0,-69.7,153.7
3.320,9.509,0.317,-3.502,12.878,26.794,20.142,176.0,-69.7,153.7
3.330,9.549,0.297,-3.519,12.756,26.428,20.203,176.0,-69.7,153.7
3.340,9.467,0.271,-3.502,12.817,26.367,20.142,176.0,-69.6,153.7
3.350,9.478,0.266,-3.503,12.939,26.367,20.081,176.0,-69.6,153.7
3.360,9.497,0.263,-3.537,12.939,25.940,19.959,176.0,-69.6,153.7
3.370,9.508,0.266,-3.553,13.123,25.879,19.959,176.0,-69.6,153.7
3.380,9.504,0.266,-3.549,13.306,26.062,20.081,176.0,-69.5,153.6
3.390,9.506,0.294,-3.605,13.306,26.367,20.020,176.0,-69.5,153.6
3.400,9.525,0.285,-3.611,13.123,26.428,20.142,176.0,-69.5,153.6
3.410,9.524,0.300,-3.576,13.123,26.367,20.203,176.1,-69.5,153.6
3.420,9.497,0.317,-3.611,13.184,26.550,20.264,176.1,-69.5,153.6
3.430,9.526,0.294,-3.587,13.184,26.672,20.325,176.1,-69.4,153.6
3.440,9.539,0.248,-3.623,13.062,26.672,20.264,176.1,-69.4,153.6
3.450,9.531,0.275,-3.610,13.000,26.611,20.264,176.1,-69.4,153.6
3.460,9.460,0.254,-3.668,13.123,26.733,20.325,176.1,-69.4,153.6
3.470,9.501,0.302,-3.626,13.123,26.917,20.325,176.1,-69.4,153.5
3.480,9.424,0.296,-3.634,13.000,26.855,20.325,176.1,-69.3,153.5
3.490,9.473,0.341,-3.634,12.878,26.733,20.325,176.1,-69.3,153.5
3.500,9.465,0.308,-3.565,12.817,26.550,20.264,176.1,-69.3,153.5
3.510,9.450,0.326,-3.577,12.939,26.306,20.203,176.1,-69.3,153.5
3.520,9.514,0.298,-3.600,12.878,25.818,19.959,176.1,-69.3,153.5
3.530,9.537,0.291,-3.647,12.939,25.513,19.959,176.1,-69.2,153.5
3.540,9.496,0.320,-3.672,13.062,25.574,20.020,176.1,-69.2,153.5
3.550,9.541,0.298,-3.716,12.878,25.757,20.203,176.1,-69.2,153.5
3.560,9.507,0.302,-3.662,12.573,25.818,20.081,176.1,-69.1,153.5
3.570,9.494,0.287,-3.674,12.573,26.306,20.203,176.1,-69.1,153.5
3.580,9.520,0.284,-3.707,12.695,26.733,20.264,176.1,-69.1,153.5
3.590,9.479,0.282,-3.617,12.634,26.917,20.325,176.2,-69.1,153.5
3.600,9.473,0.320,-3.631,12.573,26.733,20.386,176.2,-69.1,153.4
3.610,9.452,0.310,-3.622,12.512,26.917,20.264,176.2,-69.1,153.4
3.620,9.452,0.279,-3.622,12.512,26.917,20.386,176.2,-69.0,153.4
3.630,9.425,0.275,-3.557,12.634,26.611,20.325,176.2,-69.0,153.4
3.640,9.468,0.322,-3.598,12.817,26.184,20.203,176.2,-69.0,153.4
3.650,9.514,0.302,-3.725,12.817,25.940,20.081,176.2,-69.0,153.4
3.660,9.513,0.265,-3.704,12.756,26.184,20.081,176.2,-69.0,153.4
3.670,9.551,0.278,-3.702,12.817,26.489,20.020,176.2,-68.9,153.4
3.680,9.570,0.286,-3.628,12.817,26.917,19.959,176.2,-68.9,153.4
3.690,9.522,0.296,-3.684,13.000,27.283,19.959,176.2,-68.9,153.4
3.700,9.498,0.275,-3.691,13.062,27.649,20.020,176.2,-68.9,153.4
3.710,9.509,0.225,-3.675,13.000,27.466,19.959,176.2,-68.9,153.4
3.720,9.500,0.268,-3.668,13.000,27.222,20.020,176.2,-68.9,153.4
3.730,9.486,0.281,-3.705,13.000,27.405,20.020,176.2,-68.9,153.4
3.740,9.450,0.277,-3.717,13.062,27.588,20.142,176.2,-68.9,153.4
3.750,9.466,0.299,-3.691,13.123,27.893,20.081,176.2,-68.8,153.4
3.760,9.442,0.273,-3.680,13.123,27.954,20.142,176.2,-68.8,153.3
3.770,9.470,0.239,-3.675,13.123,27.710,20.081,176.2,-68.8,153.3
3.780,9.445,0.253,-3.709,13.123,27.466,20.020,176.2,-68.8,153.3
3.790,9.453,0.242,-3.741,13.123,27.283,19.897,176.2,-68.8,153.3
3.800,9.429,0.275,-3.663,13.123,27.588,19.897,176.2,-68.8,153.3
3.810,9.450,0.293,-3.624,13.245,27.710,19.959,176.2,-68.8,153.3
3.820,9.441,0.298,-3.610,13.245,27.466,19.897,176.2,-68.8,153.3
3.830,9.448,0.302,-3.671,13.184,27.222,19.775,176.2,-68.8,153.3
3.840,9.467,0.309,-3.656,13.184,27.100,19.775,176.2,-68.7,153.3
3.850,9.492,0.328,-3.740,13.123,27.039,19.714,176.2,-68.7,153.4
3.860,9.502,0.291,-3.714,13.123,27.100,19.714,176.2,-68.7,153.4
3.870,9.525,0.303,-3.680,13.184,27.405,19.775,176.2,-68.7,153.4
3.880,9.497,0.233,-3.669,13.123,27.832,19.775,176.2,-68.7,153.4
3.890,9.513,0.242,-3.693,13.245,28.015,19.897,176.2,-68.7,153.4
3.900,9.482,0.250,-3.703,13.245,28.076,19.897,176.2,-68.7,153.4
3.910,9.482,0.312,-3.744,13.123,28.137,19.897,176.2,-68.7,153.4
3.920,9.478,0.308,-3.691,13.123,28.625,19.959,176.2,-68.7,153.4
3.930,9.483,0.288,-3.668,13.245,29.053,19.959,176.2,-68.7,153.4
3.940,9.478,0.279,-3.679,13.428,28.992,19.897,176.2,-68.7,153.4
3.950,9.460,0.273,-3.660,13.306,28.381,19.897,176.2,-68.7,153.4
3.960,9.407,0.266,-3.703,13.245,28.259,19.836,176.2,-68.7,153.4
3.970,9.460,0.290,-3.701,13.245,28.137,19.836,176.2,-68.7,153.4
3.980,9.467,0.285,-3.786,13.245,28.076,19.897,176.2,-68.7,153.4
3.990,9.447,0.286,-3.772,13.245,28.015,19.897,176.2,-68.7,153.4
4.000,9.454,0.344,-3.703,13.245,28.381,19.897,176.1,-68.7,153.4
4.010,9.508,0.261,-3.778,13.306,28.564,19.897,176.1,-68.7,153.4
4.020,9.495,0.317,-3.783,13.123,28.442,19.775,176.1,-68.7,153.4
4.030,9.494,0.299,-3.735,13.123,28.503,19.836,176.1,-68.7,153.4
4.040,9.470,0.315,-3.698,13.123,28.687,19.836,176.1,-68.7,153.4
4.050,9.465,0.285,-3.711,13.184,28.503,19.897,176.1,-68.7,153.4
4.060,9.421,0.318,-3.746,13.123,28.381,19.897,176.1,-68.7,153.4
4.070,9.433,0.321,-3.745,13.123,28.381,19.959,176.1,-68.7,153.5
4.080,9.439,0.282,-3.692,13.123,28.687,19.959,176.1,-68.7,153.5
4.090,9.452,0.298,-3.646,13.062,28.381,19.959,176.1,-68.7,153.5
4.100,9.482,0.317,-3.650,12.939,28.076,19.897,176.1,-68.7,153.5
4.110,9.467,0.315,-3.680,13.062,27.588,19.775,176.1,-68.7,153.5
4.120,9.498,0.284,-3.733,13.184,27.588,19.714,176.1,-68.7,153.5
4.130,9.502,0.286,-3.814,13.123,27.832,19.836,176.1,-68.7,153.5
4.140,9.504,0.266,-3.721,13.184,28.259,19.897,176.1,-68.6,153.5
4.150,9.473,0.306,-3.757,13.245,28.687,19.959,176.1,-68.6,153.5
4.160,9.500,0.267,-3.717,13.367,28.931,20.081,176.1,-68.7,153.5
4.170,9.476,0.305,-3.701,13.367,28.809,20.142,176.1,-68.7,153.5
4.180,9.443,0.328,-3.754,13.123,28.687,20.020,176.1,-68.7,153.5
4.190,9.433,0.340,-3.734,13.000,28.687,20.081,176.1,-68.7,153.5
4.200,9.428,0.311,-3.679,12.817,28.564,20.081,176.1,-68.7,153.5
4.210,9.443,0.282,-3.653,12.878,28.503,19.959,176.1,-68.7,153.5
4.220,9.440,0.300,-3.614,13.000,28.137,19.897,176.1,-68.7,153.5
4.230,9.465,0.299,-3.678,13.123,27.527,19.836,176.0,-68.7,153.5
4.240,9.497,0.310,-3.744,13.123,27.344,19.775,176.0,-68.7,153.5
4.250,9.491,0.284,-3.823,13.184,27.588,19.775,176.0,-68.6,153.5
4.260,9.462,0.299,-3.769,13.306,28.564,19.897,176.0,-68.6,153.5
4.270,9.494,0.281,-3.689,13.123,29.358,19.959,176.0,-68.6,153.5
4.280,9.495,0.266,-3.746,13.123,29.480,19.959,176.0,-68.7,153.5
4.290,9.466,0.305,-3.763,13.062,29.358,20.142,176.0,-68.7,153.5
4.300,9.421,0.296,-3.656,13.062,29.419,20.020,176.0,-68.7,153.5
4.310,9.440,0.288,-3.725,13.123,29.419,20.142,176.0,-68.7,153.5
4.320,9.409,0.255,-3.778,13.123,29.114,20.081,176.0,-68.7,153.5
4.330,9.430,0.268,-3.669,12.878,28.992,19.959,176.0,-68.7,153.5
4.340,9.418,0.263,-3.721,12.695,28.625,19.897,176.0,-68.7,153.5
4.350,9.448,0.291,-3.684,12.878,28.503,19.836,176.0,-68.7,153.5
4.360,9.445,0.280,-3.728,12.817,28.381,19.775,176.0,-68.7,153.5
4.370,9.486,0.334,-3.725,12.634,28.259,19.836,176.0,-68.7,153.5
4.380,9.449,0.286,-3.728,12.695,28.381,19.897,176.0,-68.7,153.5
4.390,9.471,0.320,-3.721,12.634,28.503,19.897,176.0,-68.7,153.5
4.400,9.491,0.267,-3.735,12.756,28.503,19.897,176.0,-68.7,153.5
4.410,9.482,0.312,-3.752,12.878,28.687,19.897,175.9,-68.7,153.5
4.420,9.474,0.304,-3.654,12.939,29.236,20.020,175.9,-68.7,153.5
4.430,9.476,0.329,-3.748,13.000,29.114,19.959,175.9,-68.7,153.5
4.440,9.486,0.290,-3.705,13.123,28.687,19.897,175.9,-68.7,153.6
4.450,9.504,0.310,-3.804,13.062,28.442,19.897,175.9,-68.7,153.6
4.460,9.462,0.279,-3.771,13.000,28.931,19.897,175.9,-68.7,153.6
4.470,9.445,0.332,-3.783,13.000,29.541,19.897,175.9,-68.7,153.6
4.480,9.455,0.272,-3.710,12.939,29.785,20.020,175.9,-68.7,153.6
4.490,9.488,0.324,-3.683,13.123,29.724,20.020,175.9,-68.7,153.6
4.500,9.447,0.304,-3.686,13.306,29.602,20.020,175.9,-68.8,153.6
4.510,9.464,0.305,-3.677,13.306,29.236,19.959,175.9,-68.8,153.6
4.520,9.445,0.326,-3.729,13.367,28.931,19.959,175.9,-68.8,153.6
4.530,9.423,0.308,-3.655,13.306,28.870,19.959,175.9,-68.8,153.6
4.540,9.424,0.335,-3.723,13.123,28.870,20.020,175.9,-68.8,153.6
4.550,9.439,0.321,-3.705,13.062,28.870,20.020,175.9,-68.8,153.6
4.560,9.398,0.345,-3.673,13.062,28.625,19.959,175.9,-68.8,153.6
4.570,9.447,0.360,-3.684,13.123,28.381,19.897,175.9,-68.8,153.6
4.580,9.450,0.342,-3.745,12.817,28.259,19.714,175.9,-68.8,153.6
4.590,9.424,0.314,-3.636,12.756,28.076,19.653,175.8,-68.8,153.6
4.600,9.504,0.324,-3.728,12.756,27.954,19.653,175.8,-68.8,153.6
4.610,9.455,0.296,-3.655,12.695,28.076,19.653,175.8,-68.8,153.6
4.620,9.452,0.292,-3.705,12.939,28.137,19.836,175.8,-68.8,153.7
4.630,9.468,0.332,-3.707,12.878,28.137,19.897,175.8,-68.8,153.7
4.640,9.477,0.299,-3.671,12.878,28.076,19.897,175.8,-68.7,153.7
4.650,9.473,0.323,-3.702,12.939,28.259,19.959,175.8,-68.7,153.7
4.660,9.477,0.342,-3.648,13.000,28.442,19.959,175.8,-68.7,153.7
4.670,9.508,0.281,-3.679,12.878,28.442,19.897,175.8,-68.7,153.7
4.680,9.490,0.292,-3.672,12.878,28.442,19.959,175.8,-68.7,153.7
4.690,9.477,0.351,-3.667,13.123,28.442,19.897,175.8,-68.8,153.7
4.700,9.468,0.310,-3.752,13.000,28.320,19.897,175.8,-68.7,153.7
4.710,9.446,0.316,-3.737,12.878,28.137,19.897,175.7,-68.7,153.7
4.720,9.431,0.294,-3.710,12.939,28.320,19.959,175.7,-68.7,153.7
4.730,9.460,0.317,-3.701,13.123,28.442,19.897,175.7,-68.7,153.7
4.740,9.474,0.316,-3.678,13.000,28.198,19.897,175.7,-68.7,153.7
4.750,9.488,0.282,-3.742,12.939,28.198,19.897,175.7,-68.7,153.7
4.760,9.460,0.302,-3.698,13.062,28.381,19.897,175.7,-68.7,153.7
4.770,9.466,0.335,-3.739,13.000,28.442,19.897,175.7,-68.7,153.7
4.780,9.446,0.360,-3.758,13.000,28.442,19.897,175.7,-68.7,153.7
4.790,9.477,0.327,-3.710,13.123,28.748,19.897,175.7,-68.7,153.7
4.800,9.482,0.350,-3.704,13.123,28.748,19.897,175.7,-68.7,153.7
4.810,9.476,0.285,-3.661,13.184,28.625,19.836,175.7,-68.7,153.7
4.820,9.479,0.328,-3.683,13.062,28.320,19.653,175.7,-68.7,153.7
4.830,9.506,0.310,-3.770,13.062,28.320,19.775,175.7,-68.7,153.7
4.840,9.468,0.348,-3.781,13.123,28.687,19.836,175.7,-68.7,153.7
4.850,9.466,0.327,-3.805,13.245,28.748,19.836,175.7,-68.7,153.7
4.860,9.447,0.363,-3.703,13.245,28.931,19.836,175.7,-68.7,153.8
4.870,9.442,0.372,-3.780,13.123,28.503,19.897,175.6,-68.7,153.8
4.880,9.467,0.294,-3.679,13.123,28.564,19.897,175.6,-68.7,153.8
4.890,9.472,0.315,-3.704,13.062,28.442,19.775,175.6,-68.7,153.8
4.900,9.514,0.318,-3.754,13.062,28.503,19.775,175.6,-68.7,153.8
4.910,9.447,0.294,-3.693,13.062,28.625,19.836,175.6,-68.7,153.8
4.920,9.485,0.334,-3.686,13.062,28.442,19.836,175.6,-68.7,153.8
4.930,9.447,0.302,-3.727,13.123,28.381,19.897,175.6,-68.7,153.8
4.940,9.472,0.320,-3.689,13.184,28.625,20.020,175.6,-68.7,153.8
4.950,9.508,0.365,-3.698,13.306,28.625,20.020,175.6,-68.7,153.8
4.960,9.466,0.379,-3.678,13.245,28.748,20.020,175.6,-68.7,153.8
4.970,9.467,0.260,-3.666,13.123,28.748,20.020,175.6,-68.7,153.8
4.980,9.449,0.336,-3.695,13.306,28.809,19.959,175.6,-68.7,153.8
4.990,9.454,0.317,-3.715,13.123,28.503,19.836,175.6,-68.7,153.8
5.000,9.466,0.309,-3.698,13.123,28.503,19.897,175.6,-68.7,153.8
5.010,9.435,0.338,-3.703,13.123,28.931,19.959,175.6,-68.7,153.8
5.020,9.427,0.308,-3.661,13.123,29.419,20.081,175.6,-68.8,153.8
5.030,9.423,0.339,-3.625,13.123,29.358,20.203,175.6,-68.8,153.8
5.040,9.459,0.324,-3.525,13.245,29.175,20.203,175.6,-68.8,153.8
5.050,9.558,0.292,-3.611,13.611,28.564,20.142,175.6,-68.8,153.8
5.060,9.573,0.285,-3.550,13.977,28.076,20.081,175.6,-68.8,153.8
5.070,9.606,0.287,-3.801,14.526,28.564,20.081,175.6,-68.8,153.8
5.080,9.581,0.329,-3.800,14.709,29.968,20.203,175.6,-68.8,153.8
5.090,9.581,0.324,-3.851,14.526,31.433,20.386,175.7,-68.8,153.8
5.100,9.476,0.345,-3.768,14.038,32.593,20.508,175.7,-68.9,153.8
5.110,9.464,0.334,-3.692,14.099,33.813,20.752,175.7,-68.9,153.8
5.120,9.514,0.287,-3.565,14.221,34.424,20.996,175.7,-69.0,153.8
5.130,9.564,0.259,-3.544,14.771,33.813,20.813,175.7,-69.0,153.8
5.140,9.622,0.250,-3.547,15.259,33.020,20.569,175.8,-69.1,153.7
5.150,9.626,0.320,-3.669,15.686,33.142,20.325,175.8,-69.1,153.7
5.160,9.642,0.327,-3.714,16.174,34.363,20.325,175.8,-69.2,153.7
5.170,9.699,0.265,-3.759,15.686,36.194,20.447,175.8,-69.2,153.7
5.180,9.693,0.291,-3.655,15.381,37.292,20.630,175.9,-69.3,153.7
5.190,9.671,0.284,-3.595,15.747,37.842,20.752,175.9,-69.4,153.7
5.200,9.708,0.248,-3.520,16.113,38.025,20.691,175.9,-69.5,153.7
5.210,9.794,0.202,-3.549,16.357,37.109,20.142,176.0,-69.6,153.7
5.220,9.798,0.335,-3.691,16.541,36.621,19.897,176.0,-69.7,153.8
5.230,9.835,0.367,-3.880,16.907,37.720,19.959,176.0,-69.8,153.8
5.240,9.825,0.462,-3.904,17.212,40.649,20.508,176.0,-69.9,153.8
5.250,9.811,0.405,-3.920,16.968,43.762,21.057,176.0,-70.0,153.8
5.260,9.689,0.446,-3.754,17.273,45.593,21.179,176.1,-70.2,153.8
5.270,9.701,0.391,-3.525,17.639,45.349,21.179,176.1,-70.3,153.8
5.280,9.899,0.366,-3.528,18.066,41.931,20.630,176.1,-70.5,153.9
5.290,9.982,0.371,-3.690,18.677,38.696,19.897,176.1,-70.6,153.9
5.300,10.029,0.358,-3.970,18.860,38.879,19.287,176.1,-70.7,153.9
5.310,10.036,0.247,-4.178,18.250,42.419,19.409,176.2,-70.8,154.0
5.320,10.148,0.174,-4.124,16.907,47.302,20.020,176.2,-70.9,154.0
5.330,10.038,0.184,-4.088,16.968,52.429,20.569,176.2,-71.1,154.0
5.340,9.911,0.284,-3.770,15.320,56.396,21.423,176.2,-71.4,154.0
5.350,9.913,0.347,-3.604,16.113,57.068,21.301,176.2,-71.7,154.1
5.360,9.780,0.438,-3.422,16.724,56.641,21.301,176.2,-71.9,154.1
5.370,9.869,0.456,-3.375,17.151,55.908,21.057,176.2,-72.2,154.1
5.380,10.027,0.304,-3.435,16.663,54.626,20.508,176.2,-72.4,154.2
5.390,10.273,0.176,-3.343,18.127,56.824,19.836,176.2,-72.7,154.3
5.400,10.285,0.159,-3.510,18.372,55.969,19.226,176.2,-73.0,154.3
5.410,10.320,0.042,-3.719,16.357,56.580,19.348,176.1,-73.2,154.4
5.420,10.248,0.268,-3.816,15.198,61.523,20.264,176.1,-73.5,154.5
5.430,10.255,0.358,-3.705,12.756,66.162,21.545,176.1,-73.9,154.5
5.440,10.308,0.379,-3.581,11.597,68.420,21.973,176.0,-74.2,154.5
5.450,10.275,0.491,-3.380,11.230,72.083,22.888,176.0,-74.6,154.6
5.460,10.130,0.365,-3.027,12.268,76.721,23.193,175.9,-75.1,154.6
5.470,10.147,0.081,-2.718,12.085,77.637,23.560,175.9,-75.6,154.6
5.480,10.361,0.055,-2.580,13.062,74.951,23.010,175.9,-76.0,154.6
5.490,10.430,0.090,-2.544,14.404,74.158,22.827,175.9,-76.5,154.6
5.500,10.260,0.348,-2.861,16.174,74.097,22.522,175.9,-76.9,154.6
5.510,10.242,0.458,-3.170,15.564,76.538,22.400,175.9,-77.4,154.7
5.520,10.591,0.241,-2.857,12.939,78.674,23.071,175.8,-77.9,154.8
5.530,10.306,0.350,-2.974,11.475,81.604,22.034,175.7,-78.4,154.8
5.540,10.182,-0.228,-2.628,10.254,90.637,23.621,175.6,-78.9,154.9
5.550,10.166,-0.125,-2.121,10.315,91.614,22.949,175.6,-79.5,154.9
5.560,10.309,-0.126,-1.790,10.315,86.792,21.790,175.5,-80.1,155.0
5.570,10.231,0.133,-1.875,11.658,82.092,21.912,175.4,-80.7,155.1
5.580,10.555,0.291,-2.009,14.893,80.200,21.179,175.2,-81.2,155.3
5.590,10.922,0.480,-2.331,12.878,78.125,20.630,175.0,-81.7,155.5
5.600,11.289,0.734,-2.422,15.930,81.238,22.217,174.6,-82.2,155.9
5.610,10.676,-0.059,-2.703,14.221,94.177,22.888,174.3,-82.7,156.2
5.620,10.907,-0.264,-1.837,10.925,100.830,22.705,174.0,-83.4,156.5
5.630,13.340,-0.907,-0.900,10.681,90.149,20.081,173.6,-84.0,156.9
5.640,9.698,0.691,-2.894,3.723,72.876,13.367,172.7,-84.5,157.7
5.650,11.345,-0.233,-2.122,25.452,112.488,20.386,171.5,-85.2,159.0
5.660,10.346,-0.037,-2.049,11.047,106.079,18.127,170.0,-85.9,160.5
5.670,11.654,-0.573,-1.545,5.920,102.661,17.029,167.6,-86.6,162.8
5.680,9.759,0.639,-1.879,1.465,96.008,13.245,163.9,-87.2,166.5
5.690,10.531,0.260,-1.138,20.935,120.239,20.325,156.7,-87.9,173.7
5.700,10.485,0.176,-0.768,15.808,116.516,18.066,140.9,-88.7,-170.5
5.710,10.825,0.140,-0.676,12.024,106.018,15.503,105.7,-89.1,-135.2
5.720,11.111,0.184,-0.628,13.184,106.201,13.000,61.7,-88.9,-91.2
5.730,11.374,-0.163,-0.373,13.794,109.009,10.925,38.3,-88.4,-67.8
5.740,11.037,-0.238,-0.411,14.954,109.009,9.766,28.0,-87.7,-57.5
5.750,10.524,-0.246,-0.280,17.944,108.398,10.925,22.5,-87.0,-51.9
5.760,10.348,0.403,-0.338,21.240,103.088,12.512,19.2,-86.3,-48.6
5.770,10.625,0.912,-0.398,20.447,100.281,13.733,17.4,-85.6,-46.7
5.780,11.439,0.958,-0.350,17.700,101.624,12.634,16.2,-84.9,-45.5
5.790,12.025,0.353,-0.223,14.771,112.244,11.169,15.2,-84.2,-44.4
5.800,12.218,-0.465,0.189,10.742,124.573,8.850,14.0,-83.3,-43.3
5.810,11.897,-0.519,0.700,8.118,134.460,6.958,12.8,-82.3,-42.1
5.820,11.192,0.024,1.308,12.573,141.296,7.507,11.8,-81.2,-41.1
5.830,10.415,0.278,1.793,20.630,144.714,9.644,11.1,-80.1,-40.3
5.840,10.345,0.245,2.325,22.339,137.634,9.827,10.5,-79.0,-39.6
5.850,9.928,0.826,2.267,20.996,124.634,8.545,10.3,-78.0,-39.3
5.860,9.891,0.838,2.295,23.315,118.347,10.071,10.2,-77.0,-39.1
5.870,10.072,0.742,2.169,22.949,107.971,9.705,10.2,-76.2,-39.0
5.880,10.065,0.498,1.969,14.954,95.337,10.498,10.2,-75.5,-38.9
5.890,9.507,0.582,1.278,11.475,91.553,12.451,10.1,-74.9,-38.8
5.900,8.556,0.396,1.039,10.986,102.600,15.686,9.8,-74.2,-38.6
5.910,8.018,0.136,1.609,9.033,110.291,17.578,9.4,-73.5,-38.3
5.920,8.085,-0.348,2.714,5.920,108.276,18.250,9.0,-72.7,-37.8
5.930,8.180,-0.546,3.649,8.057,97.656,16.113,8.5,-72.0,-37.4
5.940,8.457,-0.623,3.883,13.000,82.947,13.977,8.3,-71.4,-37.2
5.950,8.759,-0.473,3.643,15.869,71.411,12.817,8.1,-70.9,-37.0
5.960,9.112,-0.156,3.337,16.541,64.087,12.268,8.1,-70.5,-37.0
5.970,8.874,0.577,2.918,16.052,63.538,12.817,8.1,-70.1,-37.0
5.980,8.804,0.724,3.018,15.808,68.359,14.893,8.2,-69.7,-37.0
5.990,8.729,0.839,3.635,15.564,72.144,16.235,8.2,-69.3,-37.0
6.000,8.992,0.464,4.484,15.747,67.749,16.541,8.2,-68.9,-37.0
6.010,9.234,0.236,4.945,17.883,55.603,14.709,8.2,-68.5,-36.9
6.020,9.604,0.072,4.788,19.836,41.016,12.512,8.3,-68.3,-37.0
6.030,9.881,0.142,4.073,20.813,29.297,11.047,8.5,-68.2,-37.2
6.040,10.300,0.180,3.401,21.240,25.452,10.803,8.8,-68.2,-37.4
6.050,10.413,0.576,2.860,21.790,30.518,12.512,9.0,-68.3,-37.5
6.060,10.468,0.800,2.636,21.973,38.452,15.869,9.2,-68.2,-37.7
6.070,10.278,1.187,2.764,21.545,46.936,19.897,9.3,-68.1,-37.7
6.080,10.178,1.137,3.201,18.738,53.650,23.071,9.3,-67.9,-37.6
6.090,9.855,0.918,3.797,16.296,56.824,24.658,9.2,-67.7,-37.4
6.100,9.388,0.825,4.374,16.235,54.565,23.987,9.1,-67.4,-37.2
6.110,9.111,0.783,4.558,17.395,45.837,21.973,9.0,-67.2,-37.1
6.120,9.048,0.543,4.336,18.494,34.302,19.531,9.0,-67.1,-37.0
6.130,9.328,0.377,3.871,18.921,26.367,17.029,9.1,-67.1,-37.1
6.140,9.537,0.198,3.248,18.127,24.414,15.259,9.2,-67.1,-37.2
6.150,9.624,0.127,2.813,15.808,28.137,14.832,9.3,-67.2,-37.3
6.160,9.558,0.181,2.909,13.062,33.264,15.198,9.4,-67.2,-37.3
6.170,9.352,0.238,3.105,14.648,33.142,15.625,9.5,-67.1,-37.4
6.180,8.973,0.534,3.093,19.775,27.344,15.076,9.6,-67.2,-37.5
6.190,8.832,0.523,2.788,23.926,22.400,16.235,9.8,-67.2,-37.6
6.200,8.555,0.814,2.396,25.269,24.170,18.433,10.0,-67.3,-37.7
6.210,8.536,0.597,2.317,21.362,29.602,20.752,10.2,-67.4,-37.7
6.220,8.232,0.537,2.644,17.090,33.813,21.118,10.2,-67.4,-37.7
6.230,8.067,0.719,3.084,14.038,31.067,21.179,10.2,-67.4,-37.7
6.240,7.963,0.888,3.020,13.367,22.461,20.325,10.2,-67.4,-37.7
6.250,7.905,1.081,2.716,13.184,14.160,19.592,10.3,-67.5,-37.8
6.260,7.855,1.372,2.350,11.963,8.972,18.677,10.4,-67.7,-37.9
6.270,7.671,1.549,2.167,10.437,7.324,18.127,10.7,-68.0,-38.2
6.280,7.584,1.464,2.161,9.094,6.226,17.273,10.9,-68.2,-38.5
6.290,7.398,1.588,2.304,7.813,5.371,16.541,11.2,-68.4,-38.8
6.300,7.344,1.426,2.265,5.005,4.395,16.418,11.5,-68.7,-39.2
6.310,7.449,1.293,2.118,1.099,4.700,17.090,11.6,-68.9,-39.5
6.320,7.526,1.099,2.028,-3.784,6.042,17.639,11.8,-69.2,-39.8
6.330,7.678,1.164,2.114,-9.827,6.348,17.639,11.8,-69.4,-40.0
6.340,7.712,1.515,2.350,-13.733,4.211,16.418,11.9,-69.6,-40.3
6.350,7.888,1.810,2.615,-15.686,-2.014,14.343,12.0,-69.9,-40.8
6.360,8.122,2.212,2.325,-15.320,-10.681,12.390,12.3,-70.3,-41.4
6.370,8.405,2.092,1.823,-14.160,-14.160,12.085,12.7,-70.7,-42.1
6.380,8.895,1.679,1.520,-14.282,-8.728,13.123,13.1,-71.1,-42.8
6.390,9.087,1.150,1.657,-15.503,1.770,14.587,13.3,-71.4,-43.3
6.400,8.925,0.571,2.371,-16.479,9.583,15.198,13.4,-71.6,-43.7
6.410,8.888,0.493,2.662,-15.320,10.925,15.137,13.4,-71.8,-43.9
6.420,8.870,-0.011,2.399,-12.695,7.080,14.221,13.4,-72.0,-44.2
6.430,8.787,-0.156,1.664,-8.972,5.615,14.404,13.4,-72.2,-44.5
6.440,8.653,0.018,1.448,-9.155,10.193,15.442,13.4,-72.5,-44.7
6.450,8.322,-0.007,1.819,-10.254,16.235,16.846,13.3,-72.6,-44.9
6.460,8.061,0.561,2.286,-10.742,19.714,18.188,13.1,-72.8,-45.0
6.470,7.988,0.747,2.522,-10.803,17.517,18.372,13.0,-72.8,-45.1
6.480,7.905,1.093,2.375,-9.583,15.442,18.127,13.0,-73.0,-45.3
6.490,8.182,1.381,2.217,-8.972,15.503,18.616,13.0,-73.1,-45.5
6.500,8.501,1.379,2.195,-9.766,17.212,19.226,13.0,-73.2,-45.8
6.510,8.774,1.247,2.115,-9.949,19.226,20.020,13.0,-73.3,-46.0
6.520,9.066,0.888,1.779,-9.644,23.315,21.484,12.9,-73.4,-46.1
6.530,8.768,0.546,1.654,-8.484,30.945,22.461,12.6,-73.4,-46.1
6.540,8.237,0.030,1.651,-7.629,37.720,23.193,12.3,-73.4,-45.9
6.550,7.710,-0.433,1.871,-7.263,40.222,22.888,11.8,-73.3,-45.6
6.560,7.497,-0.380,1.999,-7.385,39.063,22.278,11.3,-73.2,-45.3
6.570,7.599,-0.169,1.810,-6.653,36.804,22.888,10.8,-73.2,-45.1
6.580,7.714,0.055,1.482,-4.517,36.987,24.475,10.4,-73.1,-44.8
6.590,7.513,0.288,1.092,-3.723,38.513,25.452,10.0,-73.1,-44.6
6.600,7.388,0.549,1.065,-3.906,41.504,26.184,9.6,-73.0,-44.3
6.610,7.268,0.803,1.367,-4.272,41.626,25.940,9.2,-72.9,-44.1
6.620,7.187,0.961,1.556,-5.066,38.391,24.597,8.9,-72.8,-43.9
6.630,7.173,1.041,1.574,-5.859,34.119,22.278,8.7,-72.8,-43.9
6.640,7.392,1.137,1.276,-6.775,32.043,19.348,8.6,-72.8,-44.0
6.650,7.545,1.260,0.949,-7.568,31.860,16.724,8.6,-72.8,-44.2
6.660,8.067,1.345,0.790,-8.667,32.104,14.587,8.6,-72.8,-44.5
6.670,8.830,1.447,0.754,-9.094,34.058,13.855,8.8,-72.8,-44.8
6.680,9.502,1.636,1.011,-10.010,36.743,14.038,8.9,-72.8,-45.2
6.690,10.114,1.670,1.201,-12.695,39.246,15.381,9.0,-72.8,-45.5
6.700,10.242,1.482,1.134,-12.451,42.053,15.625,9.0,-72.7,-45.8
6.710,9.982,1.559,0.972,-13.611,44.128,14.343,9.0,-72.6,-46.1
6.720,9.653,1.630,0.956,-15.076,45.227,12.573,9.1,-72.5,-46.4
6.730,9.462,1.761,0.804,-15.076,43.884,10.010,9.2,-72.4,-46.8
6.740,9.188,1.588,0.642,-15.808,41.321,6.226,9.5,-72.3,-47.4
6.750,9.164,1.887,0.668,-16.907,40.283,2.319,9.8,-72.3,-48.1
6.760,9.579,2.037,0.758,-17.151,35.767,-1.709,10.4,-72.2,-48.9
6.770,10.021,2.171,0.971,-16.052,30.701,-4.944,11.1,-72.2,-49.9
6.780,10.278,2.344,1.114,-15.625,24.719,-6.287,11.9,-72.3,-51.1
6.790,10.889,2.520,1.401,-15.015,18.555,-4.944,12.8,-72.4,-52.2
6.800,11.570,1.884,2.091,-16.602,12.512,-1.343,13.6,-72.5,-53.4
6.810,11.855,0.883,4.397,-14.832,10.376,0.305,14.2,-72.7,-54.3
6.820,12.451,-0.915,7.818,-7.813,0.244,-2.563,14.7,-72.8,-55.1
6.830,13.213,-2.583,7.453,9.888,-11.719,-10.620,15.3,-73.0,-55.9
6.840,13.293,-2.179,3.317,25.940,-5.554,-12.573,16.1,-73.2,-56.7
6.850,12.649,-0.900,1.542,32.593,14.221,-6.775,17.0,-73.4,-57.4
6.860,11.387,0.457,2.204,36.133,33.386,2.991,17.7,-73.4,-57.9
6.870,9.857,1.221,3.749,35.828,39.612,10.742,18.1,-73.3,-58.2
6.880,8.487,2.389,5.469,32.288,30.457,13.855,18.5,-73.1,-58.4
6.890,8.087,2.618,6.356,28.442,8.667,15.320,19.1,-73.1,-58.7
6.900,7.710,1.614,5.800,23.254,-15.625,14.832,19.8,-73.3,-59.4
6.910,7.578,0.461,5.239,22.583,-25.146,13.306,20.6,-73.6,-60.1
6.920,7.989,-0.941,4.573,23.621,-25.696,10.925,21.3,-74.0,-60.8
6.930,8.927,-2.115,4.592,24.780,-20.020,6.592,22.1,-74.3,-61.5
6.940,9.734,-2.541,4.826,28.381,-15.991,0.488,22.8,-74.6,-62.1
6.950,10.490,-2.044,3.959,34.241,-13.855,-3.479,23.7,-74.9,-62.9
6.960,11.507,-0.946,3.090,37.048,-11.841,-4.822,24.8,-75.2,-63.9
6.970,11.912,0.444,2.598,38.147,-5.615,-2.930,26.2,-75.4,-65.0
6.980,11.230,1.535,2.975,37.720,3.723,2.197,27.5,-75.6,-66.1
6.990,10.547,1.985,3.553,38.330,10.254,8.728,28.5,-75.7,-66.9
7.000,9.762,2.149,3.373,39.917,12.878,14.282,29.3,-75.7,-67.5
7.010,9.533,1.980,2.917,39.368,15.198,19.836,30.0,-75.8,-67.9
7.020,9.318,1.110,2.684,36.926,18.738,23.621,30.3,-75.8,-68.0
7.030,9.234,0.388,2.596,33.142,19.348,24.292,30.5,-75.9,-67.9
7.040,9.242,0.063,2.595,30.212,20.569,23.926,30.5,-76.0,-67.8
7.050,9.557,0.010,2.207,28.381,22.400,25.452,30.4,-76.1,-67.5
7.060,9.525,-0.121,1.851,25.940,25.391,27.527,30.1,-76.2,-67.1
7.070,9.387,0.057,1.602,23.499,29.785,29.358,29.7,-76.3,-66.6
7.080,8.792,0.244,1.751,22.278,31.921,29.968,29.3,-76.3,-66.1
7.090,8.341,0.419,1.497,20.935,32.227,28.809,28.8,-76.4,-65.5
7.100,8.359,0.527,1.383,20.020,30.701,28.687,28.4,-76.4,-65.1
7.110,8.225,0.809,0.934,17.395,28.809,29.785,28.1,-76.5,-64.7
7.120,7.954,0.906,0.733,13.489,27.771,32.349,27.8,-76.6,-64.3
7.130,7.661,0.980,0.500,11.230,25.757,35.339,27.4,-76.7,-63.9
7.140,7.559,0.847,0.588,10.986,24.475,37.659,26.9,-76.8,-63.4
7.150,7.661,0.761,0.435,11.108,21.301,38.330,26.4,-77.0,-62.9
7.160,7.262,0.929,0.491,12.817,19.287,37.170,26.0,-77.2,-62.5
7.170,7.180,1.247,0.500,15.320,15.625,36.987,25.6,-77.4,-62.1
7.180,7.709,1.099,0.370,14.771,15.076,37.842,25.4,-77.7,-61.8
7.190,7.935,0.979,0.358,11.353,18.616,37.476,25.0,-77.9,-61.5
7.200,7.872,0.899,0.579,10.376,25.940,37.842,24.5,-78.0,-60.9
7.210,7.862,0.348,1.002,9.644,32.898,37.720,23.7,-78.1,-60.2
7.220,7.309,-0.166,1.166,11.658,37.354,35.950,22.7,-78.1,-59.2
7.230,6.532,-0.163,1.408,13.428,37.659,33.569,21.8,-78.1,-58.3
7.240,7.179,-0.937,1.319,15.076,36.926,32.227,20.9,-78.1,-57.3
7.250,7.473,-1.249,1.264,15.686,37.598,29.663,20.0,-78.1,-56.4
7.260,7.936,-1.340,1.061,18.005,36.926,28.381,19.1,-78.0,-55.5
7.270,8.372,-1.052,0.752,19.714,33.508,28.320,18.4,-78.1,-54.7
7.280,8.848,-0.594,0.269,22.949,30.396,27.100,17.8,-78.1,-54.1
7.290,9.467,-0.125,-0.788,29.358,26.184,25.208,17.6,-78.2,-53.7
7.300,9.519,0.203,-1.502,30.151,25.574,23.682,17.7,-78.4,-53.6
7.310,9.890,0.296,-1.049,26.550,28.503,21.973,17.9,-78.6,-53.6
7.320,10.030,0.323,-0.525,27.161,26.794,19.897,18.2,-78.7,-53.8
7.330,10.248,0.080,-0.259,29.358,21.179,18.677,18.6,-78.8,-54.0
7.340,10.651,-0.331,-0.274,30.396,16.113,18.433,19.0,-79.0,-54.3
7.350,10.651,-0.903,0.243,24.658,11.353,17.944,19.4,-79.3,-54.6
7.360,10.490,-1.487,0.952,19.226,-0.549,14.893,19.9,-79.6,-55.0
7.370,10.197,-1.284,0.838,15.198,-18.311,9.033,20.8,-80.0,-55.9
7.380,10.375,-0.482,0.409,10.986,-31.494,3.967,22.5,-80.6,-57.6
7.390,10.606,1.560,0.825,4.089,-31.555,3.418,24.8,-81.1,-60.1
7.400,10.925,2.787,2.951,6.104,-18.677,14.221,27.1,-81.5,-62.4
7.410,11.372,2.826,5.825,12.878,-17.944,29.541,28.4,-81.8,-63.8
7.420,11.561,1.379,7.712,13.306,-32.471,43.335,28.7,-82.2,-64.1
7.430,10.680,0.646,7.693,9.094,-52.979,52.429,28.6,-82.7,-64.0
7.440,11.135,1.450,6.005,-3.662,-67.139,61.646,28.1,-83.5,-63.7
7.450,11.189,2.515,0.259,-7.751,-55.908,73.608,27.4,-84.4,-63.2
7.460,10.618,1.578,-0.792,-3.540,-0.488,81.604,24.5,-85.1,-60.4
7.470,10.157,-0.023,3.431,1.953,25.513,75.439,18.7,-85.3,-54.8
7.480,10.755,0.622,5.148,9.888,12.512,63.538,12.9,-85.4,-49.0
7.490,12.176,0.579,3.511,18.738,10.803,55.298,8.6,-85.5,-44.6
7.500,14.722,0.381,2.954,24.048,32.471,46.753,5.0,-85.5,-40.9
7.510,15.935,0.369,3.238,16.296,35.767,34.729,2.9,-85.3,-38.7
7.520,14.918,0.828,1.234,1.709,29.663,23.804,2.3,-85.2,-38.2
1.200,9.544,0.697,-3.181,-0.183,0.183,0.122,167.0,-71.4,158.7
1.210,9.613,0.716,-3.167,-0.122,0.183,0.122,167.0,-71.4,158.7
1.220,9.629,0.729,-3.191,-0.183,0.183,0.000,167.0,-71.4,158.7
1.230,9.598,0.758,-3.134,0.000,0.183,0.122,167.0,-71.4,158.7
1.240,9.610,0.719,-3.221,0.000,0.244,0.061,167.0,-71.4,158.7
1.250,9.611,0.724,-3.140,-0.061,0.183,0.061,167.0,-71.4,158.7
1.260,9.620,0.687,-3.124,-0.061,0.183,0.122,167.0,-71.4,158.7
1.270,9.601,0.709,-3.102,-0.122,0.122,0.122,167.0,-71.4,158.7
1.280,9.628,0.715,-3.134,-0.122,0.183,0.122,167.0,-71.4,158.7
1.290,9.611,0.698,-3.241,-0.122,0.122,0.122,167.0,-71.4,158.7
1.300,9.599,0.739,-3.200,0.000,0.183,0.122,167.0,-71.4,158.7
1.310,9.611,0.730,-3.197,-0.183,0.244,0.122,167.0,-71.4,158.7
1.320,9.594,0.737,-3.193,0.000,0.183,0.122,167.0,-71.4,158.7
1.330,9.606,0.718,-3.228,-0.122,0.122,0.122,167.0,-71.4,158.7
1.340,9.597,0.683,-3.107,-0.122,0.122,0.122,167.0,-71.4,158.7
1.350,9.601,0.664,-3.155,-0.183,0.122,0.122,167.0,-71.4,158.7
1.360,9.595,0.713,-3.144,-0.183,0.183,0.122,167.1,-71.4,158.7
1.370,9.634,0.711,-3.140,-0.061,0.183,0.122,167.1,-71.4,158.7
1.380,9.623,0.712,-3.160,-0.183,0.061,0.061,167.1,-71.4,158.7
1.390,9.606,0.747,-3.169,-0.122,0.183,0.061,167.1,-71.4,158.7
1.400,9.618,0.733,-3.239,-0.061,0.061,0.122,167.1,-71.4,158.7
1.410,9.576,0.718,-3.223,-0.183,0.183,0.122,167.1,-71.4,158.7
1.420,9.614,0.751,-3.229,-0.122,0.122,0.122,167.1,-71.4,158.7
1.430,9.624,0.731,-3.180,-0.183,0.244,0.122,167.1,-71.4,158.7
1.440,9.564,0.721,-3.194,-0.122,0.244,0.122,167.1,-71.4,158.7
1.450,9.619,0.743,-3.172,-0.183,0.183,0.122,167.1,-71.4,158.7
1.460,9.642,0.718,-3.198,-0.183,0.244,0.122,167.1,-71.4,158.7
1.470,9.618,0.699,-3.181,-0.244,0.183,0.122,167.1,-71.4,158.7
1.480,9.606,0.715,-3.162,-0.183,0.183,0.122,167.1,-71.4,158.7
1.490,9.612,0.693,-3.201,-0.244,0.183,0.122,167.1,-71.4,158.7
1.500,9.632,0.697,-3.233,-0.244,0.122,0.122,167.1,-71.4,158.7
1.510,9.608,0.713,-3.195,-0.183,0.122,0.122,167.1,-71.4,158.7
1.520,9.594,0.724,-3.224,-0.183,0.122,0.122,167.1,-71.4,158.7
1.530,9.606,0.753,-3.179,-0.183,0.183,0.183,167.1,-71.4,158.7
1.540,9.598,0.722,-3.211,-0.183,0.183,0.183,167.1,-71.4,158.7
1.550,9.611,0.713,-3.199,-0.183,0.244,0.183,167.1,-71.4,158.7
1.560,9.595,0.716,-3.134,-0.122,0.244,0.122,167.1,-71.4,158.7
1.570,9.623,0.723,-3.173,-0.183,0.183,0.122,167.1,-71.4,158.7
1.580,9.648,0.727,-3.149,-0.183,0.244,0.122,167.1,-71.4,158.7
1.590,9.635,0.707,-3.156,-0.183,0.244,0.122,167.1,-71.4,158.7
1.600,9.636,0.703,-3.191,-0.244,0.183,0.183,167.1,-71.4,158.7
1.610,9.617,0.709,-3.216,-0.244,0.183,0.122,167.1,-71.4,158.7
1.620,9.585,0.763,-3.234,-0.183,0.244,0.122,167.1,-71.4,158.7
1.630,9.616,0.723,-3.216,-0.183,0.305,0.122,167.1,-71.4,158.7
1.640,9.608,0.718,-3.254,-0.183,0.366,0.122,167.1,-71.4,158.7
1.650,9.624,0.729,-3.205,-0.244,0.305,0.183,167.1,-71.4,158.7
1.660,9.604,0.724,-3.162,-0.305,0.427,0.122,167.1,-71.4,158.7
1.670,9.630,0.754,-3.256,-0.366,0.244,0.244,167.1,-71.4,158.6
1.680,9.612,0.728,-3.138,-0.366,0.427,0.244,167.1,-71.4,158.6
1.690,9.603,0.729,-3.063,-0.244,0.305,0.183,167.1,-71.4,158.6
1.700,9.597,0.707,-3.210,-0.183,0.366,0.183,167.1,-71.4,158.6
1.710,9.628,0.718,-3.173,-0.244,0.244,0.305,167.1,-71.4,158.6
1.720,9.582,0.701,-3.148,-0.183,0.366,0.244,167.1,-71.4,158.6
1.730,9.600,0.707,-3.164,-0.305,0.305,0.122,167.1,-71.4,158.6
1.740,9.589,0.709,-3.176,-0.244,0.305,0.244,167.1,-71.4,158.6
1.750,9.565,0.731,-3.158,-0.366,0.366,0.183,167.1,-71.4,158.6
1.760,9.618,0.713,-3.198,-0.427,0.366,0.183,167.1,-71.4,158.6
1.770,9.625,0.699,-3.193,-0.427,0.488,0.244,167.1,-71.4,158.6
1.780,9.593,0.722,-3.160,-0.366,0.366,0.244,167.1,-71.4,158.6
1.790,9.589,0.733,-3.175,-0.305,0.427,0.244,167.1,-71.4,158.6
1.800,9.630,0.718,-3.120,-0.305,0.305,0.183,167.1,-71.4,158.6
1.810,9.565,0.711,-3.148,-0.305,0.427,0.183,167.1,-71.4,158.6
1.820,9.607,0.683,-3.167,-0.183,0.305,0.305,167.1,-71.4,158.6
1.830,9.634,0.711,-3.137,-0.366,0.305,0.244,167.1,-71.4,158.6
1.840,9.636,0.709,-3.221,-0.305,0.366,0.244,167.1,-71.4,158.6
1.850,9.575,0.691,-3.132,-0.244,0.305,0.244,167.1,-71.4,158.6
1.860,9.598,0.719,-3.151,-0.366,0.366,0.183,167.1,-71.4,158.6
1.870,9.599,0.722,-3.163,-0.305,0.244,0.305,167.1,-71.4,158.6
1.880,9.593,0.736,-3.207,-0.244,0.244,0.244,167.1,-71.4,158.6
1.890,9.592,0.710,-3.168,-0.305,0.244,0.244,167.1,-71.4,158.6
1.900,9.600,0.716,-3.187,-0.305,0.427,0.244,167.1,-71.4,158.6
1.910,9.632,0.760,-3.133,-0.305,0.366,0.244,167.1,-71.4,158.6
1.920,9.623,0.695,-3.180,-0.305,0.244,0.244,167.1,-71.4,158.5
1.930,9.643,0.710,-3.188,-0.366,0.366,0.244,167.1,-71.4,158.5
1.940,9.612,0.723,-3.175,-0.366,0.305,0.366,167.1,-71.4,158.5
1.950,9.636,0.709,-3.096,-0.366,0.305,0.183,167.1,-71.4,158.5
1.960,9.620,0.719,-3.172,-0.305,0.244,0.244,167.1,-71.4,158.5
1.970,9.625,0.737,-3.156,-0.244,0.305,0.183,167.1,-71.4,158.5
1.980,9.595,0.728,-3.173,-0.305,0.305,0.305,167.1,-71.4,158.5
1.990,9.620,0.719,-3.148,-0.305,0.305,0.244,167.1,-71.4,158.5
2.000,9.614,0.724,-3.199,-0.366,0.366,0.244,167.1,-71.4,158.5
2.010,9.597,0.716,-3.115,-0.305,0.244,0.244,167.1,-71.4,158.5
2.020,9.588,0.742,-3.183,-0.305,0.244,0.244,167.1,-71.4,158.5
2.030,9.626,0.707,-3.175,-0.366,0.244,0.244,167.1,-71.4,158.5
2.040,9.623,0.749,-3.198,-0.244,0.305,0.244,167.1,-71.4,158.5
2.050,9.608,0.716,-3.167,-0.183,0.244,0.183,167.1,-71.4,158.5
2.060,9.583,0.716,-3.217,-0.244,0.244,0.183,167.1,-71.4,158.5
2.070,9.611,0.721,-3.173,-0.183,0.244,0.305,167.2,-71.4,158.5
2.080,9.616,0.705,-3.151,-0.244,0.244,0.183,167.2,-71.4,158.5
2.090,9.610,0.710,-3.125,-0.305,0.305,0.244,167.2,-71.4,158.5
2.100,9.575,0.733,-3.207,-0.305,0.244,0.183,167.2,-71.4,158.5
2.110,9.587,0.719,-3.173,-0.305,0.183,0.183,167.2,-71.5,158.5
2.120,9.611,0.727,-3.181,-0.244,0.244,0.244,167.2,-71.4,158.5
2.130,9.594,0.693,-3.154,-0.305,0.305,0.183,167.2,-71.5,158.5
2.140,9.605,0.699,-3.156,-0.244,0.244,0.244,167.2,-71.5,158.5
2.150,9.646,0.693,-3.140,-0.305,0.183,0.305,167.2,-71.5,158.5
2.160,9.619,0.681,-3.177,-0.244,0.183,0.244,167.2,-71.5,158.5
2.170,9.630,0.722,-3.199,-0.366,0.305,0.244,167.2,-71.5,158.4
2.180,9.618,0.693,-3.167,-0.305,0.183,0.183,167.2,-71.5,158.4
2.190,9.626,0.748,-3.157,-0.244,0.244,0.244,167.2,-71.5,158.4
2.200,9.595,0.727,-3.166,-0.183,0.244,0.183,167.2,-71.5,158.4
2.210,9.622,0.685,-3.185,-0.244,0.183,0.183,167.2,-71.5,158.4
2.220,9.619,0.698,-3.258,-0.305,0.183,0.122,167.2,-71.5,158.4
2.230,9.618,0.692,-3.137,-0.244,0.183,0.122,167.2,-71.5,158.4
2.240,9.641,0.739,-3.164,-0.366,0.183,0.183,167.2,-71.5,158.4
2.250,9.617,0.717,-3.173,-0.305,0.244,0.122,167.2,-71.5,158.4
2.260,9.613,0.725,-3.140,-0.244,0.183,0.244,167.2,-71.5,158.4
2.270,9.624,0.717,-3.207,-0.244,0.305,0.183,167.2,-71.5,158.4
2.280,9.599,0.712,-3.122,-0.366,0.244,0.183,167.2,-71.5,158.4
2.290,9.625,0.685,-3.157,-0.366,0.183,0.183,167.2,-71.5,158.4
2.300,9.586,0.719,-3.182,-0.366,0.183,0.244,167.2,-71.5,158.4
2.310,9.603,0.718,-3.183,-0.305,0.061,0.244,167.2,-71.5,158.4
2.320,9.624,0.716,-3.205,-0.305,0.122,0.244,167.2,-71.5,158.4
2.330,9.597,0.716,-3.158,-0.366,0.183,0.244,167.2,-71.4,158.4
2.340,9.597,0.695,-3.186,-0.305,0.183,0.122,167.2,-71.4,158.4
2.350,9.642,0.709,-3.134,-0.244,0.183,0.122,167.2,-71.4,158.4
2.360,9.612,0.685,-3.197,-0.244,0.183,0.183,167.2,-71.4,158.4
2.370,9.594,0.704,-3.149,-0.305,0.244,0.183,167.2,-71.4,158.4
2.380,9.606,0.688,-3.145,-0.244,0.305,0.122,167.2,-71.5,158.4
2.390,9.626,0.727,-3.161,-0.305,0.183,0.122,167.2,-71.5,158.4
2.400,9.626,0.716,-3.176,-0.183,0.244,0.122,167.2,-71.5,158.4
2.410,9.634,0.721,-3.132,-0.244,0.183,0.122,167.2,-71.5,158.4
2.420,9.622,0.733,-3.160,-0.183,0.305,0.183,167.2,-71.5,158.4
2.430,9.603,0.701,-3.144,-0.183,0.244,0.183,167.2,-71.5,158.4
2.440,9.622,0.733,-3.120,-0.122,0.244,0.122,167.2,-71.5,158.4
2.450,9.603,0.715,-3.193,-0.183,0.183,0.122,167.2,-71.5,158.4
2.460,9.637,0.715,-3.191,-0.183,0.244,0.122,167.2,-71.5,158.4
2.470,9.628,0.719,-3.162,-0.183,0.244,0.122,167.2,-71.5,158.4
2.480,9.573,0.695,-3.201,-0.183,0.183,0.122,167.2,-71.5,158.4
2.490,9.611,0.731,-3.138,-0.183,0.183,0.122,167.2,-71.4,158.4
2.500,9.598,0.717,-3.157,-0.183,0.305,0.061,167.2,-71.5,158.4
2.510,9.600,0.730,-3.148,-0.183,0.366,0.061,167.2,-71.5,158.4
2.520,9.591,0.722,-3.201,-0.183,0.427,0.061,167.2,-71.5,158.4
2.530,9.586,0.724,-3.118,-0.183,0.305,0.000,167.2,-71.5,158.4
2.540,9.617,0.683,-3.148,-0.122,0.183,0.061,167.2,-71.5,158.4
2.550,9.606,0.698,-3.161,-0.183,0.183,-0.061,167.2,-71.5,158.4
2.560,9.634,0.692,-3.217,-0.122,0.122,0.122,167.2,-71.5,158.4
2.570,9.607,0.692,-3.102,-0.122,0.183,0.061,167.2,-71.4,158.4
2.580,9.610,0.725,-3.157,-0.061,0.183,0.061,167.2,-71.5,158.4
2.590,9.644,0.740,-3.146,-0.061,0.183,0.061,167.2,-71.4,158.4
2.600,9.617,0.707,-3.183,-0.061,0.122,0.000,167.2,-71.4,158.4
2.610,9.616,0.685,-3.161,-0.122,0.122,0.061,167.2,-71.4,158.4
2.620,9.606,0.679,-3.204,0.000,0.244,0.122,167.2,-71.4,158.4
2.630,9.618,0.747,-3.204,-0.061,0.183,0.122,167.2,-71.4,158.4
2.640,9.607,0.728,-3.148,0.000,0.244,0.122,167.2,-71.4,158.4
2.650,9.601,0.688,-3.175,-0.061,0.183,0.122,167.2,-71.4,158.4
2.660,9.613,0.703,-3.200,-0.122,0.244,0.122,167.2,-71.4,158.4
2.670,9.614,0.663,-3.185,-0.122,0.122,0.122,167.2,-71.4,158.4
2.680,9.575,0.712,-3.204,-0.122,0.183,0.000,167.2,-71.4,158.4
2.690,9.630,0.729,-3.187,-0.183,0.183,0.122,167.2,-71.4,158.4
2.700,9.637,0.701,-3.195,-0.122,0.305,0.122,167.2,-71.4,158.4
2.710,9.586,0.695,-3.195,-0.183,0.244,0.061,167.2,-71.4,158.4
2.720,9.636,0.716,-3.137,-0.183,0.244,0.122,167.2,-71.4,158.4
2.730,9.635,0.743,-3.183,-0.122,0.366,0.122,167.2,-71.4,158.4
2.740,9.624,0.694,-3.134,-0.183,0.305,0.000,167.2,-71.4,158.4
2.750,9.599,0.725,-3.162,-0.122,0.305,0.122,167.2,-71.4,158.4
2.760,9.599,0.728,-3.156,-0.122,0.244,0.122,167.2,-71.4,158.4
2.770,9.626,0.731,-3.124,-0.061,0.305,0.122,167.2,-71.4,158.4
2.780,9.640,0.715,-3.183,-0.122,0.366,0.000,167.2,-71.4,158.4
2.790,9.610,0.700,-3.145,-0.122,0.305,0.122,167.2,-71.4,158.4
2.800,9.624,0.703,-3.179,-0.061,0.305,0.122,167.2,-71.4,158.4
2.810,9.614,0.729,-3.114,-0.122,0.366,0.061,167.2,-71.4,158.4
2.820,9.616,0.718,-3.161,-0.122,0.305,0.122,167.2,-71.4,158.4
2.830,9.573,0.699,-3.195,-0.183,0.183,0.122,167.2,-71.4,158.4
2.840,9.628,0.674,-3.181,-0.183,0.244,0.061,167.2,-71.4,158.4
2.850,9.616,0.739,-3.142,-0.122,0.244,0.122,167.2,-71.4,158.4
2.860,9.667,0.701,-3.185,-0.061,0.305,0.122,167.2,-71.4,158.4
2.870,9.600,0.698,-3.114,-0.122,0.183,0.000,167.2,-71.4,158.4
2.880,9.616,0.697,-3.223,-0.061,0.244,0.122,167.2,-71.4,158.4
2.890,9.612,0.745,-3.106,-0.061,0.366,0.061,167.2,-71.4,158.4
2.900,9.649,0.713,-3.116,-0.122,0.183,0.061,167.2,-71.4,158.4
2.910,9.637,0.731,-3.120,0.000,0.244,0.122,167.2,-71.4,158.4
2.920,9.612,0.703,-3.201,-0.061,0.183,0.122,167.2,-71.4,158.4
2.930,9.611,0.717,-3.183,-0.122,0.183,0.061,167.2,-71.4,158.4
2.940,9.630,0.728,-3.189,0.000,0.183,0.122,167.2,-71.4,158.4
2.950,9.617,0.682,-3.191,-0.061,0.183,0.122,167.2,-71.4,158.4
2.960,9.629,0.734,-3.189,-0.183,0.183,0.061,167.2,-71.4,158.4
2.970,9.632,0.718,-3.126,-0.183,0.244,0.000,167.2,-71.4,158.4
2.980,9.598,0.736,-3.138,-0.183,0.305,0.122,167.2,-71.4,158.5
2.990,9.597,0.695,-3.176,-0.122,0.305,0.061,167.2,-71.4,158.5
3.000,9.619,0.728,-3.172,-0.183,0.366,0.122,167.2,-71.4,158.5
3.010,9.610,0.689,-3.121,-0.183,0.305,0.061,167.2,-71.4,158.5
3.020,9.625,0.679,-3.169,-0.122,0.183,0.122,167.2,-71.4,158.5
3.030,9.577,0.679,-3.139,-0.122,0.183,0.061,167.2,-71.4,158.5
3.040,9.591,0.730,-3.189,-0.122,0.183,0.122,167.2,-71.4,158.5
3.050,9.631,0.699,-3.187,0.000,0.122,0.122,167.2,-71.4,158.5
3.060,9.598,0.704,-3.154,0.061,0.122,0.122,167.2,-71.4,158.5
3.070,9.601,0.745,-3.229,0.000,0.122,0.122,167.2,-71.4,158.5
3.080,9.603,0.736,-3.198,0.000,0.122,0.122,167.2,-71.4,158.5
3.090,9.619,0.661,-3.130,0.000,0.122,0.122,167.2,-71.4,158.5
3.100,9.632,0.734,-3.222,-0.061,0.122,0.000,167.2,-71.4,158.5
3.110,9.629,0.719,-3.169,-0.183,0.122,0.061,167.2,-71.4,158.5
3.120,9.598,0.715,-3.192,-0.122,0.183,0.000,167.2,-71.4,158.5
3.130,9.569,0.700,-3.195,-0.183,0.183,0.000,167.2,-71.4,158.5
3.140,9.608,0.695,-3.152,-0.183,0.244,0.000,167.2,-71.4,158.5
3.150,9.653,0.716,-3.215,-0.122,0.183,0.061,167.2,-71.4,158.5
3.160,9.570,0.707,-3.175,-0.061,0.244,0.122,167.2,-71.4,158.5
3.170,9.601,0.701,-3.145,-0.183,0.244,0.122,167.2,-71.4,158.5
3.180,9.641,0.725,-3.186,-0.061,0.244,0.061,167.2,-71.4,158.5
3.190,9.642,0.723,-3.197,-0.183,0.183,0.122,167.2,-71.4,158.5
3.200,9.614,0.705,-3.130,-0.061,0.183,0.061,167.2,-71.4,158.5
3.210,9.628,0.725,-3.164,-0.183,0.183,0.122,167.2,-71.4,158.5
3.220,9.630,0.735,-3.168,-0.183,0.183,0.122,167.2,-71.4,158.5
3.230,9.631,0.706,-3.134,-0.183,0.183,0.061,167.2,-71.4,158.5
3.240,9.604,0.716,-3.217,-0.183,0.183,0.122,167.2,-71.4,158.5
3.250,9.624,0.717,-3.160,-0.183,0.183,0.061,167.2,-71.4,158.5
1.020,9.277,1.422,-3.995,-0.549,0.000,-0.061,160.8,-65.1,156.0
1.030,9.240,1.442,-3.988,-0.366,0.000,-0.122,160.8,-65.1,156.0
1.040,9.239,1.417,-4.128,-0.366,-0.061,-0.122,160.8,-65.1,156.0
1.050,9.240,1.418,-4.085,-0.244,0.000,-0.061,160.8,-65.1,155.9
1.060,9.221,1.401,-4.027,-0.305,0.427,0.122,160.8,-65.1,155.9
1.070,9.219,1.433,-4.098,-0.366,1.038,0.183,160.8,-65.1,155.9
1.080,9.283,1.410,-4.039,-0.366,1.343,0.122,160.8,-65.1,156.0
1.090,9.206,1.375,-4.030,-0.610,1.343,0.183,160.8,-65.1,156.0
1.100,9.218,1.390,-3.985,-0.671,1.343,0.061,160.7,-65.1,156.0
1.110,9.203,1.404,-4.007,-0.610,0.916,0.000,160.7,-65.2,156.0
1.120,9.211,1.447,-4.006,-0.549,0.183,-0.061,160.7,-65.2,156.0
1.130,9.241,1.409,-4.024,-0.549,0.000,-0.061,160.7,-65.2,156.0
1.140,9.210,1.390,-4.027,-0.244,0.183,-0.061,160.7,-65.2,156.0
1.150,9.236,1.421,-4.013,-0.305,0.366,-0.122,160.7,-65.2,156.0
1.160,9.230,1.399,-4.018,-0.244,0.244,-0.122,160.7,-65.2,156.0
1.170,9.253,1.399,-4.070,-0.244,0.122,-0.122,160.7,-65.2,156.0
1.180,9.267,1.379,-4.045,-0.366,0.183,-0.061,160.7,-65.2,156.0
1.190,9.245,1.438,-4.054,-0.366,0.366,-0.061,160.7,-65.2,156.0
1.200,9.247,1.452,-3.989,-0.366,0.549,0.000,160.7,-65.2,156.0
1.210,9.267,1.397,-4.003,-0.366,0.488,-0.061,160.7,-65.2,156.0
1.220,9.227,1.412,-3.963,-0.183,0.305,0.000,160.7,-65.2,156.0
1.230,9.224,1.446,-4.000,-0.183,-0.244,-0.061,160.7,-65.2,156.0
1.240,9.252,1.392,-4.023,-0.183,-0.244,-0.122,160.7,-65.2,156.0
1.250,9.231,1.454,-3.989,-0.183,0.305,-0.061,160.7,-65.2,156.0
1.260,9.241,1.441,-4.006,-0.183,0.916,-0.061,160.7,-65.2,156.0
1.270,9.270,1.410,-3.995,-0.305,0.549,-0.122,160.7,-65.2,156.0
1.280,9.247,1.408,-4.005,-0.366,-0.183,-0.122,160.7,-65.2,156.0
1.290,9.225,1.383,-4.003,-0.366,-0.427,-0.183,160.7,-65.2,156.0
1.300,9.239,1.397,-3.962,-0.366,-0.244,-0.122,160.7,-65.2,156.0
1.310,9.210,1.405,-4.036,-0.305,-0.366,-0.122,160.7,-65.2,156.0
1.320,9.236,1.433,-4.032,-0.244,-0.549,-0.122,160.7,-65.2,156.0
1.330,9.237,1.426,-4.160,-0.244,-0.488,-0.122,160.7,-65.2,156.0
1.340,9.233,1.434,-4.075,-0.244,-0.122,-0.061,160.7,-65.2,156.0
1.350,9.263,1.391,-4.080,-0.183,-0.183,-0.061,160.7,-65.2,156.0
1.360,9.278,1.398,-4.029,0.000,0.000,-0.122,160.7,-65.2,156.0
1.370,9.218,1.399,-4.015,-0.183,0.000,-0.122,160.7,-65.2,156.0
1.380,9.260,1.398,-4.015,-0.183,-0.061,-0.122,160.7,-65.2,156.0
1.390,9.261,1.438,-4.036,-0.122,-0.366,-0.183,160.7,-65.2,156.0
1.400,9.255,1.408,-3.983,-0.366,-0.732,-0.122,160.7,-65.2,156.0
1.410,9.233,1.442,-4.021,0.000,-0.854,-0.305,160.7,-65.2,155.9
1.420,9.224,1.434,-4.005,-0.122,-1.160,-0.366,160.7,-65.2,155.9
1.430,9.235,1.377,-4.033,-0.183,-1.282,-0.488,160.7,-65.2,155.9
1.440,9.271,1.407,-4.047,-0.366,-1.099,-0.366,160.7,-65.1,155.9
1.450,9.246,1.433,-3.976,-0.244,-0.793,-0.366,160.7,-65.1,155.9
1.460,9.233,1.390,-3.950,-0.305,-0.977,-0.366,160.7,-65.1,155.9
1.470,9.249,1.395,-3.974,-0.183,-1.526,-0.427,160.7,-65.1,155.9
1.480,9.264,1.405,-4.014,0.000,-1.831,-0.427,160.7,-65.1,155.9
1.490,9.247,1.390,-4.054,0.061,-1.282,-0.366,160.7,-65.1,155.9
1.500,9.269,1.414,-4.057,-0.061,-0.732,-0.427,160.7,-65.1,155.9
1.510,9.233,1.421,-4.053,0.000,-0.793,-0.305,160.7,-65.1,155.9
1.520,9.236,1.451,-4.035,-0.061,-0.854,-0.366,160.7,-65.1,155.9
1.530,9.211,1.441,-3.983,-0.122,-0.793,-0.305,160.7,-65.1,155.9
1.540,9.206,1.424,-3.995,-0.122,-0.916,-0.366,160.7,-65.1,155.9
1.550,9.258,1.463,-4.037,-0.122,-1.404,-0.366,160.7,-65.0,155.9
1.560,9.248,1.429,-4.031,-0.061,-1.465,-0.488,160.8,-65.0,155.9
1.570,9.257,1.444,-4.036,-0.061,-1.587,-0.366,160.8,-65.0,155.9
1.580,9.298,1.482,-4.112,-0.061,-1.709,-0.427,160.8,-65.0,155.9
1.590,9.219,1.469,-4.118,-0.183,-1.465,-0.488,160.8,-65.0,155.9
1.600,9.241,1.408,-4.063,-0.244,-1.160,-0.366,160.8,-65.0,155.9
1.610,9.203,1.404,-4.055,-0.244,-1.221,-0.427,160.8,-65.0,155.9
1.620,9.200,1.408,-4.078,-0.183,-1.282,-0.427,160.8,-64.9,155.9
1.630,9.206,1.385,-4.020,-0.183,-1.282,-0.366,160.8,-64.9,155.9
1.640,9.254,1.387,-4.078,-0.122,-1.343,-0.305,160.8,-64.9,155.9
1.650,9.234,1.448,-4.110,-0.122,-1.099,-0.183,160.8,-64.9,155.9
1.660,9.249,1.401,-4.044,0.000,-0.671,-0.183,160.8,-64.9,155.9
1.670,9.239,1.453,-4.117,-0.061,-0.610,-0.244,160.8,-64.9,155.9
1.680,9.215,1.363,-3.975,0.061,-1.099,-0.305,160.8,-64.9,155.9
1.690,9.210,1.402,-4.029,0.183,-1.465,-0.427,160.8,-64.9,155.9
1.700,9.243,1.365,-4.007,0.366,-1.709,-0.488,160.8,-64.9,155.9
1.710,9.228,1.415,-4.091,0.305,-1.770,-0.549,160.8,-64.8,155.9
1.720,9.210,1.433,-4.105,0.305,-1.831,-0.488,160.8,-64.8,155.9
1.730,9.233,1.424,-4.160,0.244,-2.014,-0.427,160.9,-64.8,155.8
1.740,9.248,1.463,-4.118,0.122,-1.831,-0.366,160.9,-64.8,155.8
1.750,9.230,1.456,-4.151,0.244,-1.404,-0.305,160.9,-64.8,155.8
1.760,9.224,1.471,-4.104,0.061,-0.854,-0.183,160.9,-64.7,155.8
1.770,9.225,1.403,-4.067,0.061,-0.977,-0.244,160.9,-64.7,155.8
1.780,9.225,1.403,-4.142,-0.061,-1.099,-0.244,160.9,-64.7,155.8
1.790,9.174,1.428,-4.155,0.000,-0.977,-0.183,160.9,-64.7,155.8
1.800,9.227,1.403,-4.054,-0.183,-0.854,-0.122,160.9,-64.7,155.8
1.810,9.219,1.407,-4.036,-0.122,-0.793,-0.244,160.9,-64.7,155.8
1.820,9.225,1.428,-4.064,0.000,-0.916,-0.244,160.9,-64.7,155.8
1.830,9.212,1.430,-4.118,0.122,-1.343,-0.366,160.9,-64.7,155.8
1.840,9.231,1.451,-4.091,0.122,-1.648,-0.366,160.9,-64.7,155.8
1.850,9.245,1.403,-4.075,0.122,-1.709,-0.305,160.9,-64.7,155.8
1.860,9.233,1.405,-4.057,0.122,-1.343,-0.305,160.9,-64.6,155.8
1.870,9.227,1.432,-4.193,0.122,-0.732,-0.122,161.0,-64.6,155.8
1.880,9.193,1.439,-4.106,-0.122,-0.793,-0.122,161.0,-64.6,155.8
1.890,9.213,1.377,-4.133,-0.183,-1.160,-0.122,161.0,-64.6,155.8
1.900,9.223,1.411,-4.051,0.061,-1.343,-0.122,161.0,-64.6,155.8
1.910,9.241,1.465,-4.166,0.183,-0.793,-0.122,161.0,-64.6,155.7
1.920,9.234,1.430,-4.152,0.000,-0.549,-0.122,161.0,-64.6,155.7
1.930,9.227,1.445,-4.120,-0.183,-0.610,-0.122,161.0,-64.6,155.7
1.940,9.194,1.412,-4.110,-0.183,-0.793,-0.122,161.0,-64.6,155.7
1.950,9.179,1.434,-4.161,-0.061,-0.671,-0.183,161.0,-64.6,155.7
1.960,9.184,1.435,-4.100,0.183,-0.916,-0.122,161.0,-64.6,155.7
1.970,9.186,1.434,-4.102,0.061,-0.977,-0.122,161.0,-64.6,155.7
1.980,9.255,1.423,-4.122,-0.122,-1.038,-0.122,161.1,-64.5,155.7
1.990,9.233,1.427,-4.206,-0.183,-0.793,-0.061,161.1,-64.5,155.7
2.000,9.279,1.424,-4.129,-0.061,-0.610,-0.122,161.1,-64.5,155.7
2.010,9.237,1.417,-4.153,0.183,-0.671,-0.244,161.1,-64.5,155.7
2.020,9.198,1.418,-4.142,0.183,-0.671,-0.122,161.1,-64.5,155.7
2.030,9.215,1.401,-4.135,0.122,-0.488,-0.122,161.1,-64.5,155.7
2.040,9.248,1.440,-4.175,0.061,-0.427,-0.122,161.1,-64.5,155.7
2.050,9.200,1.412,-4.172,-0.122,-0.427,-0.122,161.1,-64.5,155.7
2.060,9.206,1.403,-4.106,-0.061,-0.427,-0.122,161.1,-64.5,155.7
2.070,9.230,1.407,-4.172,0.000,-0.610,-0.061,161.1,-64.5,155.6
2.080,9.237,1.426,-4.133,-0.061,-0.549,-0.122,161.1,-64.5,155.6
2.090,9.229,1.404,-4.170,-0.061,-0.183,-0.061,161.1,-64.5,155.6
2.100,9.234,1.434,-4.127,0.183,0.244,-0.061,161.1,-64.5,155.6
2.110,9.223,1.475,-4.127,0.183,0.305,-0.061,161.1,-64.5,155.6
2.120,9.190,1.446,-4.166,0.000,0.000,-0.122,161.1,-64.5,155.6
2.130,9.161,1.391,-4.167,-0.122,0.000,-0.061,161.1,-64.5,155.6
2.140,9.182,1.366,-4.078,0.061,0.122,-0.061,161.1,-64.5,155.6
2.150,9.231,1.386,-4.130,0.122,0.061,-0.061,161.2,-64.5,155.6
2.160,9.215,1.396,-4.114,0.000,-0.427,-0.122,161.2,-64.5,155.6
2.170,9.210,1.410,-4.173,0.000,-0.488,-0.061,161.2,-64.5,155.6
2.180,9.251,1.450,-4.164,0.305,0.183,0.000,161.2,-64.5,155.6
2.190,9.219,1.433,-4.163,0.061,0.854,0.000,161.2,-64.5,155.6
2.200,9.182,1.428,-4.108,0.183,0.854,-0.061,161.2,-64.5,155.6
2.210,9.190,1.444,-4.120,0.000,0.366,-0.122,161.2,-64.5,155.6
2.220,9.188,1.448,-4.092,-0.061,0.183,-0.122,161.2,-64.5,155.6
2.230,9.207,1.408,-4.047,-0.183,-0.061,-0.122,161.2,-64.5,155.6
2.240,9.197,1.414,-4.109,-0.122,-0.366,-0.122,161.2,-64.5,155.6
2.250,9.203,1.387,-4.104,-0.061,-0.366,-0.122,161.2,-64.5,155.6
2.260,9.240,1.409,-4.116,0.061,-0.427,-0.122,161.2,-64.5,155.6
2.270,9.222,1.405,-4.218,-0.122,-0.305,-0.122,161.2,-64.5,155.6
2.280,9.207,1.409,-4.145,0.000,0.244,-0.061,161.2,-64.5,155.6
2.290,9.236,1.428,-4.133,0.122,0.916,-0.122,161.2,-64.5,155.6
2.300,9.237,1.454,-4.159,0.000,1.099,-0.122,161.2,-64.5,155.6
2.310,9.219,1.438,-4.121,0.061,0.671,-0.122,161.2,-64.6,155.6
2.320,9.173,1.404,-4.066,0.000,0.183,-0.122,161.2,-64.6,155.7
2.330,9.202,1.398,-4.108,0.244,0.183,-0.183,161.2,-64.6,155.7
2.340,9.187,1.374,-4.133,0.122,0.061,-0.122,161.2,-64.6,155.7
2.350,9.198,1.399,-4.126,0.000,-0.305,-0.122,161.2,-64.6,155.7
2.360,9.251,1.390,-4.111,-0.061,-0.305,-0.183,161.2,-64.6,155.7
2.370,9.190,1.389,-4.182,-0.061,0.183,-0.122,161.2,-64.6,155.7
2.380,9.205,1.442,-4.091,-0.122,0.549,-0.122,161.2,-64.6,155.7
