time,acc_x,acc_y,acc_z,gyro_x,gyro_y,gyro_z,roll,pitch,yaw
6.770,8.494,0.083,0.093,15.747,4.089,4.822,41.2,-82.4,-85.5
6.780,8.914,0.141,-0.254,16.357,9.399,5.737,40.7,-82.4,-84.8
6.790,9.272,0.192,-0.476,18.311,15.381,5.859,40.0,-82.4,-83.9
6.800,9.176,0.256,-0.673,19.287,20.691,6.042,39.1,-82.4,-82.8
6.810,9.180,0.202,-0.464,18.555,24.231,6.592,38.0,-82.3,-81.5
6.820,9.038,0.166,-0.581,19.592,23.987,6.836,36.9,-82.2,-80.2
6.830,8.781,-0.078,-0.600,20.569,22.644,7.568,35.8,-82.2,-78.9
6.840,8.462,-0.669,-0.443,21.118,17.822,7.019,34.9,-82.1,-77.7
6.850,7.952,-1.007,0.316,17.639,8.911,4.150,34.2,-82.2,-76.8
6.860,7.922,-1.235,1.495,18.433,-2.747,-0.854,33.9,-82.2,-76.4
6.870,8.093,-0.833,2.581,17.456,-19.836,-8.118,34.5,-82.3,-76.8
6.880,8.827,0.249,2.607,16.968,-37.842,-14.648,36.2,-82.5,-78.4
6.890,9.618,1.999,1.762,12.695,-49.561,-17.212,39.3,-82.7,-81.4
6.900,10.279,3.611,1.195,2.075,-48.950,-14.709,43.2,-82.9,-85.2
6.910,10.442,4.040,2.951,-14.404,-36.438,-8.789,46.7,-83.0,-88.8
6.920,11.409,3.049,8.422,-23.315,-28.381,0.854,48.1,-83.0,-90.4
6.930,14.030,4.145,9.434,-17.273,-61.096,21.606,48.4,-83.1,-91.0
6.940,14.855,3.095,3.481,-3.479,-100.647,56.213,50.4,-83.8,-93.1
6.950,13.085,-0.411,-2.664,-8.057,-91.858,81.848,53.5,-85.0,-96.2
6.960,11.317,-2.602,-2.495,-15.320,-25.330,82.825,52.4,-86.1,-95.3
6.970,10.844,-3.452,4.181,-2.441,26.245,68.787,41.8,-86.6,-84.8
6.980,12.331,-3.381,8.293,14.282,8.484,52.612,27.6,-86.7,-70.4
6.990,13.613,-0.882,4.516,38.757,-22.278,40.649,17.4,-86.8,-59.9
7.000,14.040,1.904,0.073,50.354,-9.277,37.231,11.2,-87.0,-53.2
7.010,14.059,2.642,0.700,29.968,19.531,33.386,6.6,-86.9,-48.2
7.020,12.649,1.790,2.317,4.822,19.348,24.597,3.5,-86.7,-45.0
7.030,12.366,1.685,2.515,-8.850,11.047,15.503,1.5,-86.5,-43.1
7.040,13.130,1.542,1.526,-11.719,15.625,7.324,1.0,-86.3,-42.7
7.050,11.733,1.563,1.569,-7.080,29.846,1.160,1.5,-86.0,-43.3
7.060,10.480,1.415,2.423,1.282,34.302,-0.854,2.3,-85.6,-44.1
7.070,9.466,1.822,2.264,7.141,28.687,-2.747,3.3,-85.2,-45.0
7.080,9.014,1.622,1.460,6.348,26.611,-1.648,4.3,-84.9,-45.9
7.090,8.891,1.825,1.222,0.916,28.992,1.404,4.8,-84.6,-46.4
7.100,9.156,1.866,1.214,-8.057,29.846,5.188,4.9,-84.3,-46.5
7.110,9.328,1.679,1.250,-13.184,31.250,6.714,4.6,-84.0,-46.4
7.120,9.278,1.344,1.156,-14.832,32.166,5.737,4.3,-83.6,-46.2
7.130,8.970,0.889,1.138,-13.733,32.043,3.906,4.0,-83.3,-46.1
7.140,8.666,0.309,1.217,-11.292,30.884,2.747,3.8,-83.0,-45.9
7.150,8.364,-0.013,0.988,-9.827,29.358,2.319,3.4,-82.7,-45.6
7.160,7.881,-0.434,0.869,-9.949,30.029,1.953,3.0,-82.4,-45.3
7.170,7.253,-0.777,0.976,-8.301,32.166,2.014,2.4,-82.1,-44.9
7.180,6.940,-1.017,1.137,-5.676,30.945,2.502,1.8,-81.8,-44.3
7.190,6.878,-0.886,1.154,-3.174,27.954,2.686,1.3,-81.5,-43.8
7.200,6.788,-0.442,0.989,-0.183,22.949,3.784,0.8,-81.3,-43.3
7.210,7.080,-0.195,0.525,0.977,16.113,5.798,0.3,-81.1,-42.8
7.220,7.207,-0.151,0.107,2.686,14.282,7.263,-0.1,-81.0,-42.3
7.230,7.092,-0.187,0.029,3.296,12.146,7.935,-0.6,-80.9,-41.8
7.240,7.199,-0.070,-0.265,3.601,6.897,7.507,-1.1,-80.9,-41.3
7.250,7.264,0.077,-0.398,5.005,-0.854,6.165,-1.5,-80.9,-40.9
7.260,7.566,0.262,-0.277,7.263,-13.916,3.845,-1.7,-81.1,-40.6
7.270,8.300,0.616,-0.405,8.179,-21.179,4.211,-1.8,-81.4,-40.4
7.280,8.931,1.017,-0.299,12.451,-19.653,7.263,-1.9,-81.6,-40.1
7.290,9.190,1.503,-0.288,11.597,-21.545,12.085,-2.3,-81.9,-39.7
7.300,9.557,1.878,-0.268,5.310,-29.297,15.991,-2.8,-82.2,-39.0
7.310,9.805,1.608,-0.125,-0.061,-36.865,19.287,-3.7,-82.7,-38.1
7.320,10.360,0.783,0.063,-1.587,-36.743,23.499,-5.3,-83.1,-36.5
7.330,10.519,0.101,0.707,-3.113,-30.884,27.893,-7.6,-83.4,-34.2
7.340,10.124,-0.712,1.791,-0.977,-23.926,30.640,-10.6,-83.6,-31.2
7.350,9.818,-1.230,2.565,3.357,-19.104,28.992,-13.7,-83.7,-28.0
7.360,9.539,-0.977,3.042,6.592,-12.878,23.560,-16.4,-83.7,-25.3
7.370,9.840,-0.478,6.880,4.028,-7.813,15.381,-18.0,-83.6,-23.6
7.380,11.618,0.656,10.725,8.606,-27.588,-4.822,-17.7,-83.5,-23.8
7.390,16.242,-1.382,7.381,23.254,-54.993,-34.180,-15.1,-83.7,-26.2
7.400,17.983,-6.134,3.009,38.391,-34.424,-58.777,-11.4,-84.1,-29.6
7.410,12.656,-2.171,1.565,52.734,18.005,-72.388,-6.1,-84.1,-34.5
7.420,8.804,0.650,1.756,49.011,42.969,-53.650,-0.4,-83.7,-39.7
7.430,7.389,3.140,2.726,35.828,40.222,-26.245,3.3,-83.2,-43.0
7.440,8.074,2.661,3.684,15.564,16.541,-9.033,5.5,-82.9,-45.0
7.450,8.918,1.363,4.065,18.494,-3.967,-6.348,6.8,-82.7,-46.1
7.460,9.119,0.710,3.069,37.170,-13.855,-10.803,8.2,-82.7,-47.3
7.470,8.991,-0.590,1.541,52.490,-17.761,-9.094,9.7,-82.8,-48.3
7.480,10.006,-1.894,0.832,54.443,-16.296,-1.343,10.4,-83.0,-48.4
7.490,11.827,-3.409,1.782,53.894,-3.906,5.432,9.9,-83.1,-47.3
7.500,11.901,-4.123,2.920,62.195,0.244,6.836,8.5,-83.1,-45.3
7.510,11.162,-3.447,2.135,71.533,-15.015,4.822,7.2,-83.2,-43.4
7.520,10.151,-2.318,0.977,83.008,-20.203,5.615,6.6,-83.4,-41.9
7.530,9.790,-1.740,0.657,89.172,-12.268,9.827,5.9,-83.6,-40.4
7.540,9.893,-1.213,0.826,86.853,-4.700,12.756,5.2,-83.7,-38.8
7.550,10.288,-0.846,1.050,84.473,-1.648,12.695,4.4,-83.7,-37.1
7.560,10.294,-0.443,1.276,86.975,-0.977,11.047,3.9,-83.7,-35.8
7.570,9.980,-0.517,1.451,91.858,-1.831,8.423,3.8,-83.7,-34.8
7.580,9.585,-0.679,1.502,98.145,0.122,5.432,3.9,-83.7,-34.0
7.590,9.327,-0.709,1.251,105.652,-0.183,3.967,4.3,-83.7,-33.2
7.600,9.190,-0.301,0.554,108.154,-1.465,4.456,4.7,-83.7,-32.6
7.610,9.071,0.225,0.180,103.760,-1.709,6.836,5.1,-83.8,-31.9
7.620,9.948,0.463,0.320,100.037,-2.625,11.108,5.3,-83.9,-31.2
7.630,9.902,0.954,0.165,99.487,0.977,14.465,5.3,-83.9,-30.2
7.640,9.705,0.704,0.418,99.548,7.751,17.883,5.1,-83.9,-28.9
7.650,9.358,0.254,0.656,98.877,12.207,17.944,4.5,-83.8,-27.3
7.660,8.930,-0.072,0.709,97.107,13.000,16.724,3.9,-83.7,-25.7
7.670,8.787,-0.347,0.729,98.816,13.733,15.564,3.3,-83.6,-24.1
7.680,8.749,-0.555,0.850,100.647,13.733,13.855,2.8,-83.5,-22.6
7.690,9.108,-0.555,0.768,105.164,11.841,12.085,2.5,-83.4,-21.2
7.700,9.636,-0.343,0.369,110.291,11.902,11.536,2.4,-83.3,-20.0
7.710,9.868,-0.032,-0.032,112.976,14.343,12.207,2.3,-83.2,-18.9
7.720,9.920,0.110,-0.117,113.220,16.663,13.550,2.3,-83.1,-17.7
7.730,9.744,0.211,0.096,113.892,18.555,14.221,2.3,-83.0,-16.5
7.740,9.436,0.317,0.353,115.845,18.372,14.099,2.3,-82.9,-15.4
7.750,9.197,0.352,0.530,118.836,17.273,13.550,2.5,-82.7,-14.4
7.760,9.075,0.533,0.487,120.667,15.869,13.184,2.8,-82.6,-13.4
7.770,8.866,0.657,0.695,121.277,14.709,13.062,3.1,-82.5,-12.6
7.780,8.784,0.831,0.529,121.948,12.634,12.695,3.5,-82.4,-11.8
7.790,8.706,1.029,0.432,123.535,11.292,11.597,4.1,-82.3,-11.1
7.800,8.726,0.930,0.444,125.061,11.292,9.705,4.9,-82.2,-10.6
7.810,8.985,0.691,0.795,125.610,11.047,6.836,5.8,-82.2,-10.3
7.820,9.203,0.616,1.257,123.230,9.766,4.761,6.8,-82.1,-10.0
7.830,9.846,0.460,1.039,122.253,6.958,3.540,7.8,-82.0,-9.8
7.840,10.156,0.401,0.836,120.850,8.423,3.357,8.8,-82.0,-9.6
7.850,10.011,0.346,0.948,118.225,11.353,4.883,9.7,-81.9,-9.2
7.860,9.539,0.164,0.875,117.737,16.052,7.813,10.2,-81.8,-8.6
7.870,9.182,-0.019,0.783,116.821,21.729,11.841,10.4,-81.6,-7.6
7.880,8.761,-0.094,0.877,114.929,26.001,17.456,10.2,-81.4,-6.2
7.890,8.568,-0.189,0.682,115.295,25.635,22.766,9.6,-81.2,-4.4
7.900,8.069,-0.300,0.642,116.577,22.949,24.658,8.9,-81.1,-2.5
7.910,8.004,-0.704,1.569,118.225,18.982,25.330,8.2,-80.9,-0.6
7.920,8.590,-0.769,1.824,125.122,9.277,22.339,7.6,-80.8,1.2
7.930,9.725,-0.572,2.739,129.334,-0.366,19.592,7.4,-80.8,2.7
7.940,11.658,0.366,4.150,126.282,-9.827,18.738,7.4,-80.9,4.0
7.950,14.204,2.539,3.425,123.169,-17.090,23.621,7.5,-80.9,5.2
7.960,15.668,4.905,0.148,123.169,-10.925,36.377,7.5,-81.1,6.4
7.970,13.774,4.872,-1.314,117.065,18.005,45.288,7.3,-81.2,7.8
7.980,11.101,3.315,0.965,99.792,49.988,48.401,6.3,-80.9,9.9
7.990,9.612,1.532,2.750,91.125,58.716,41.687,5.0,-80.4,12.3
8.000,9.120,1.073,2.130,95.032,49.927,30.396,4.1,-79.8,14.1
8.010,9.387,1.005,1.160,99.487,46.875,24.658,3.7,-79.3,15.5
8.020,9.415,1.390,0.797,104.675,49.377,24.658,3.6,-78.9,16.7
8.030,9.271,1.384,0.997,105.591,45.837,28.870,3.4,-78.5,17.9
8.040,9.276,1.142,1.265,106.262,39.612,36.255,3.0,-78.1,19.5
8.050,9.251,1.128,1.062,106.934,33.264,44.617,2.2,-77.8,21.4
8.060,9.198,0.759,0.723,104.492,28.198,53.101,1.1,-77.6,23.6
8.070,9.198,-0.009,0.569,100.769,27.405,58.838,-0.3,-77.4,26.2
8.080,9.410,-0.739,1.076,96.741,27.893,60.608,-2.1,-77.2,28.9
8.090,9.585,-0.831,1.743,97.168,21.973,58.594,-3.8,-76.9,31.6
8.100,9.902,-0.653,1.758,100.098,15.381,54.199,-5.2,-76.7,34.1
8.110,10.413,-0.120,1.471,106.323,15.747,47.791,-6.2,-76.6,36.3
8.120,10.888,0.942,1.184,112.610,21.240,40.527,-6.7,-76.4,37.9
8.130,10.956,1.841,1.130,117.004,26.489,34.607,-6.6,-76.2,39.1
8.140,10.602,2.194,1.185,119.568,31.494,32.227,-6.2,-75.9,39.9
8.150,10.157,2.197,1.468,121.826,32.959,31.433,-5.7,-75.6,40.6
8.160,9.788,2.164,1.323,124.146,30.701,31.799,-5.2,-75.3,41.3
8.170,9.807,2.101,1.102,125.183,28.076,33.508,-4.7,-75.1,42.2
8.180,9.747,1.837,1.000,126.953,27.588,36.072,-4.3,-74.9,43.1
8.190,9.544,1.372,1.154,127.319,27.954,39.368,-4.0,-74.6,44.2
8.200,9.403,0.961,1.586,125.794,28.198,42.664,-4.0,-74.4,45.4
8.210,9.387,0.588,1.952,124.817,26.062,45.166,-4.1,-74.1,46.9
8.220,9.248,0.494,1.806,122.864,21.790,46.387,-4.3,-73.9,48.4
8.230,9.245,0.650,1.523,119.873,19.287,46.448,-4.5,-73.7,49.9
8.240,9.191,0.859,1.453,117.004,16.296,46.021,-4.7,-73.6,51.3
8.250,9.453,1.288,1.074,113.953,10.193,44.373,-4.9,-73.5,52.7
8.260,9.641,1.657,0.904,115.051,12.573,42.725,-4.9,-73.4,53.9
8.270,9.656,2.070,0.814,113.464,14.038,42.358,-4.8,-73.3,55.1
8.280,9.582,2.313,1.002,110.291,14.832,43.457,-4.8,-73.2,56.2
8.290,9.508,2.513,1.237,108.460,15.015,44.434,-4.7,-73.1,57.4
8.300,9.321,2.559,1.389,104.736,13.916,45.410,-4.7,-73.0,58.5
8.310,9.175,2.566,1.633,100.037,13.123,46.143,-4.7,-72.9,59.6
8.320,8.957,2.569,1.754,95.886,10.376,46.082,-4.8,-72.8,60.7
8.330,8.583,2.532,2.083,90.210,8.911,45.166,-4.9,-72.8,61.9
8.340,8.056,2.361,2.279,84.351,4.395,42.847,-5.0,-72.7,62.9
8.350,8.060,1.853,1.848,79.407,-2.136,38.696,-5.1,-72.7,63.9
8.360,8.605,1.682,1.329,75.928,-6.348,32.715,-5.2,-72.8,64.8
8.370,9.263,2.015,1.075,72.327,-6.958,27.161,-5.1,-72.9,65.5
8.380,9.428,2.513,1.141,69.153,-6.775,23.315,-4.9,-73.0,66.0
8.390,9.405,2.940,1.496,61.768,-8.850,22.034,-4.6,-73.2,66.4
8.400,9.428,3.222,1.896,53.833,-9.827,22.156,-4.3,-73.3,66.7
8.410,9.545,3.119,2.446,49.072,-10.315,21.484,-4.0,-73.4,67.0
8.420,9.731,2.848,2.791,47.852,-13.489,19.959,-3.7,-73.6,67.3
8.430,10.245,2.732,2.645,45.898,-17.761,17.883,-3.4,-73.7,67.5
8.440,10.922,2.578,2.461,43.335,-19.226,16.113,-3.2,-74.0,67.7
8.450,11.471,2.068,2.627,42.603,-15.076,14.893,-2.9,-74.1,67.9
8.460,11.429,1.318,2.954,42.725,-10.986,14.099,-2.6,-74.3,68.1
8.470,10.966,0.788,3.036,42.236,-9.094,14.465,-2.5,-74.4,68.4
8.480,10.343,0.727,2.778,41.260,-8.667,15.137,-2.5,-74.5,68.9
8.490,9.608,0.954,2.485,42.969,-5.615,14.526,-2.5,-74.5,69.3
8.500,8.852,1.156,2.194,47.058,-0.366,13.977,-2.3,-74.6,69.6
8.510,8.313,0.892,2.226,48.828,3.967,13.733,-2.1,-74.5,70.0
8.520,7.972,0.614,2.667,47.791,6.287,14.465,-2.0,-74.5,70.3
8.530,8.153,0.145,3.262,45.776,4.150,15.259,-2.0,-74.4,70.8
8.540,8.326,-0.332,2.924,46.143,-3.174,15.564,-2.0,-74.4,71.3
8.550,8.542,-0.641,2.412,50.415,-9.949,16.174,-2.2,-74.4,72.0
8.560,9.072,-1.134,1.888,57.434,-17.212,17.395,-2.4,-74.6,72.8
8.570,9.527,-1.728,1.232,66.589,-20.996,18.677,-2.6,-74.8,73.7
8.580,9.801,-2.080,0.992,73.608,-21.606,18.921,-2.9,-75.1,74.8
8.590,9.834,-2.061,0.989,77.698,-20.447,18.188,-3.3,-75.3,75.9
8.600,10.146,-1.596,1.202,80.750,-18.860,16.174,-3.5,-75.6,76.9
8.610,10.179,-0.825,1.335,80.811,-18.311,13.489,-3.5,-75.8,77.7
8.620,10.287,-0.053,1.447,80.261,-18.677,11.902,-3.3,-76.1,78.4
8.630,10.443,0.815,1.454,80.322,-18.372,11.658,-3.0,-76.3,78.9
8.640,10.323,1.289,1.491,80.750,-13.855,12.268,-2.5,-76.5,79.2
8.650,10.123,1.339,1.819,81.543,-8.911,13.855,-2.0,-76.6,79.6
8.660,9.923,1.000,1.948,82.153,-8.850,15.381,-1.6,-76.7,80.0
8.670,9.897,0.469,1.770,81.970,-11.902,15.381,-1.2,-76.9,80.5
8.680,9.850,0.044,1.354,80.261,-15.137,14.709,-1.0,-77.0,81.1
8.690,9.913,-0.416,1.007,79.285,-16.846,14.160,-0.9,-77.2,81.7
8.700,9.995,-0.797,0.800,79.895,-16.907,13.550,-0.8,-77.5,82.5
8.710,10.033,-0.837,0.764,81.909,-16.052,13.428,-0.8,-77.7,83.3
8.720,10.157,-0.677,0.628,84.839,-13.489,14.160,-0.7,-77.9,84.1
8.730,10.182,-0.483,0.815,87.097,-9.521,15.381,-0.7,-78.1,84.9
8.740,10.118,-0.415,1.288,88.928,-7.507,16.235,-0.7,-78.2,85.8
8.750,9.892,-0.099,1.889,91.125,-6.531,16.785,-0.6,-78.3,86.7
8.760,9.693,0.168,2.210,92.773,-7.813,17.029,-0.5,-78.4,87.6
8.770,9.529,0.298,2.071,93.872,-9.521,16.174,-0.3,-78.4,88.3
8.780,9.478,0.335,1.919,93.994,-8.850,15.442,-0.1,-78.5,89.0
8.790,9.491,0.178,1.752,92.773,-6.714,15.015,0.2,-78.6,89.7
8.800,9.646,-0.035,1.679,90.759,-4.395,15.625,0.4,-78.7,90.5
8.810,9.739,-0.131,1.499,88.562,-2.686,15.625,0.5,-78.7,91.3
8.820,9.762,-0.088,1.247,86.426,-1.160,16.296,0.5,-78.8,92.1
8.830,9.745,0.114,1.008,85.449,0.366,16.296,0.5,-78.8,93.0
8.840,9.665,0.238,0.819,85.327,2.136,15.564,0.6,-78.8,93.7
8.850,9.497,0.382,0.849,85.510,3.845,15.015,0.8,-78.8,94.4
8.860,9.342,0.226,1.061,86.060,3.784,14.465,1.0,-78.9,95.1
8.870,9.339,0.341,1.199,86.060,2.258,13.672,1.2,-78.9,95.8
8.880,9.395,0.542,1.009,86.670,1.892,12.512,1.5,-78.9,96.4
8.890,9.964,0.588,1.033,86.304,1.526,13.245,1.8,-78.9,96.9
8.900,10.090,0.801,0.892,85.083,1.587,13.672,2.1,-78.9,97.5
8.910,10.237,0.901,0.558,82.459,1.892,14.648,2.4,-79.0,98.0
8.920,9.999,0.785,0.476,81.055,4.883,15.015,2.7,-79.0,98.6
8.930,10.063,0.420,0.761,80.505,8.606,15.808,2.8,-79.0,99.3
8.940,9.913,0.241,0.640,80.322,9.644,15.991,2.9,-79.0,100.1
8.950,9.863,0.205,0.533,80.078,11.108,15.747,2.9,-78.9,100.9
8.960,9.899,0.332,0.326,79.773,10.864,15.381,2.9,-78.9,101.7
8.970,9.859,0.382,0.378,79.895,11.597,14.526,3.0,-78.8,102.4
8.980,9.692,0.345,0.427,80.139,12.390,14.343,3.2,-78.8,103.1
8.990,9.537,0.335,0.458,79.773,12.390,14.587,3.3,-78.7,103.8
9.000,9.389,0.385,0.403,81.055,12.451,14.587,3.4,-78.7,104.4
9.010,9.045,0.543,0.491,80.872,13.000,16.174,3.5,-78.6,105.2
9.020,9.243,0.717,0.494,80.627,11.841,17.639,3.6,-78.6,106.0
9.030,9.181,1.064,0.288,80.322,10.620,18.188,3.6,-78.5,106.7
9.040,9.239,1.158,0.017,77.698,9.888,19.714,3.7,-78.5,107.5
9.050,9.449,0.935,-0.241,74.829,10.925,20.691,3.7,-78.5,108.3
9.060,9.355,0.966,-0.344,71.533,13.062,20.508,3.6,-78.5,109.1
9.070,8.982,1.126,-0.361,67.627,14.893,19.592,3.5,-78.5,110.0
9.080,8.883,1.296,-0.362,64.514,14.771,20.447,3.3,-78.4,110.8
9.090,8.684,1.486,-0.393,61.340,13.855,20.630,3.2,-78.4,111.5
9.100,8.581,1.541,-0.345,59.326,13.062,20.813,3.1,-78.4,112.3
9.110,8.569,1.660,-0.232,58.472,12.146,19.897,3.1,-78.3,112.9
9.120,8.616,1.654,-0.044,58.167,11.902,19.348,3.0,-78.3,113.6
9.130,8.754,1.705,0.174,56.396,11.536,18.921,3.0,-78.3,114.2
9.140,9.006,1.648,0.202,53.589,11.169,19.409,3.0,-78.2,114.8
9.150,9.270,1.489,0.223,50.354,11.169,20.508,2.9,-78.2,115.5
9.160,9.527,1.059,0.164,48.218,10.620,21.790,2.6,-78.2,116.2
9.170,9.738,0.375,-0.046,49.744,8.362,22.644,2.2,-78.2,117.2
9.180,9.599,0.026,-0.363,53.772,8.423,21.545,1.7,-78.2,118.2
9.190,9.260,0.073,-0.373,51.697,7.324,17.334,1.4,-78.2,119.1
9.200,9.664,0.431,-0.343,49.438,3.601,11.353,1.3,-78.3,119.7
9.210,10.337,1.251,-0.224,45.776,2.747,6.836,1.5,-78.4,119.9
9.220,10.343,1.898,-0.633,45.044,7.507,5.920,2.0,-78.4,119.9
9.230,9.714,1.353,1.647,40.283,13.306,4.883,2.6,-78.4,119.8
9.240,9.865,0.917,8.142,35.645,-1.587,0.610,3.0,-78.3,119.7
9.250,12.096,2.936,8.838,39.490,-54.260,-6.348,3.9,-78.4,119.2
9.260,14.338,7.292,3.755,21.423,-106.018,-1.282,5.6,-79.1,117.8
9.270,14.863,7.179,-3.308,6.042,-92.224,21.606,7.2,-80.1,116.3
9.280,12.132,2.534,-5.026,-3.113,-7.507,36.743,7.2,-80.8,116.4
9.290,9.489,0.053,1.332,-7.507,44.067,36.316,5.2,-80.7,118.3
9.300,8.585,-1.348,5.355,0.427,31.433,32.715,2.9,-80.3,120.6
9.310,9.854,-1.642,3.680,10.864,8.057,33.264,0.7,-80.0,123.0
9.320,11.090,-2.405,3.730,16.785,13.916,37.659,-1.6,-79.8,125.5
9.330,10.747,-2.769,4.477,21.729,12.939,39.185,-4.1,-79.6,128.2
9.340,9.963,-1.872,3.453,24.292,0.671,37.109,-6.4,-79.4,130.8
9.350,9.939,-0.921,2.818,24.780,-0.854,32.898,-8.3,-79.3,132.9
9.360,10.632,-0.139,2.671,23.071,0.549,25.757,-9.5,-79.2,134.4
9.370,11.332,0.327,1.918,18.616,0.488,19.226,-10.3,-79.1,135.4
9.380,11.643,0.737,0.973,13.062,3.235,16.418,-10.8,-79.1,136.1
9.390,11.288,0.640,0.735,8.179,10.864,13.794,-11.2,-79.1,136.5
9.400,10.539,0.688,1.424,5.554,19.775,9.399,-11.3,-78.9,136.7
9.410,9.934,0.761,2.086,7.019,22.522,3.906,-11.0,-78.7,136.6
9.420,9.382,1.171,2.226,10.437,24.658,-0.610,-10.4,-78.5,136.1
9.430,9.034,1.493,2.223,11.536,25.940,-2.258,-9.7,-78.3,135.4
9.440,8.870,1.402,2.332,11.658,26.245,-1.038,-8.9,-78.0,134.7
9.450,8.226,0.931,2.459,10.925,25.574,1.221,-8.2,-77.7,134.2
9.460,8.344,0.588,2.204,10.010,21.912,4.456,-7.9,-77.5,134.0
9.470,8.396,0.698,1.581,8.301,20.020,5.676,-7.8,-77.3,134.0
9.480,8.625,0.457,1.307,4.578,20.386,4.578,-7.7,-77.1,133.9
9.490,8.693,0.385,1.402,1.404,20.569,0.977,-7.5,-76.9,133.8
9.500,8.584,0.203,1.550,0.183,19.165,-2.380,-7.2,-76.8,133.5
9.510,8.329,0.005,1.542,1.099,17.639,-4.456,-6.9,-76.6,133.1
9.520,8.066,-0.050,1.302,2.869,18.921,-4.456,-6.5,-76.5,132.8
9.530,8.194,0.028,1.427,2.869,20.386,-4.211,-6.2,-76.3,132.5
9.540,7.825,0.006,1.421,3.723,20.081,-4.150,-5.9,-76.1,132.2
9.550,7.699,0.445,1.529,5.615,21.667,-4.089,-5.5,-75.9,131.9
9.560,7.777,0.664,1.547,5.798,19.836,-3.540,-5.1,-75.8,131.6
9.570,8.110,0.683,1.426,5.920,18.311,-2.808,-4.7,-75.6,131.2
9.580,8.305,0.731,1.447,6.348,19.531,-1.953,-4.4,-75.4,130.9
9.590,8.446,0.737,1.296,6.409,19.531,-1.099,-4.0,-75.3,130.7
9.600,8.717,0.746,1.245,4.272,19.653,-0.854,-3.7,-75.1,130.4
9.610,9.140,0.699,1.274,3.662,20.325,-1.404,-3.5,-75.0,130.2
9.620,9.375,0.736,1.191,5.310,20.874,-1.709,-3.2,-74.8,130.0
9.630,9.312,1.043,1.077,6.897,19.653,-1.160,-2.9,-74.7,129.7
9.640,9.294,1.302,0.816,7.751,16.235,-0.122,-2.5,-74.6,129.5
9.650,9.550,1.171,0.604,7.080,14.221,-0.183,-2.2,-74.5,129.2
9.660,9.410,1.295,0.397,7.324,12.939,-2.014,-1.9,-74.5,129.0
9.670,9.186,1.202,-0.009,6.042,9.521,-4.395,-1.4,-74.5,128.6
9.680,8.994,1.361,-0.318,4.395,6.104,-7.141,-0.9,-74.5,128.2
9.690,9.010,1.551,-0.476,2.502,0.854,-10.498,-0.3,-74.6,127.6
9.700,9.042,1.969,-0.455,1.587,-5.249,-13.611,0.5,-74.8,126.8
9.710,9.301,2.410,-0.320,-0.427,-13.184,-15.625,1.4,-75.0,125.9
9.720,10.008,2.620,0.181,-5.310,-20.569,-15.930,2.4,-75.3,124.8
9.730,10.705,2.733,0.409,-8.606,-27.588,-12.939,3.4,-75.7,123.7
9.740,10.645,2.514,0.603,-11.230,-28.320,-4.639,4.1,-76.1,122.9
9.750,10.911,1.531,1.090,-12.878,-29.053,2.808,4.5,-76.4,122.4
9.760,10.929,0.590,3.076,-9.338,-25.574,4.578,4.5,-76.7,122.3
9.770,11.111,-0.562,7.004,-5.981,-32.959,-2.930,4.6,-77.0,122.2
9.780,12.439,-1.886,8.117,1.831,-57.800,-21.851,5.2,-77.3,121.5
6.690,8.263,-0.177,2.114,32.043,-26.306,3.967,33.4,-77.5,-81.2
6.700,9.162,-0.220,1.116,26.855,-25.879,6.897,33.9,-77.8,-81.4
6.710,9.811,-0.412,0.715,23.560,-17.517,10.864,34.1,-78.1,-81.3
6.720,9.887,-0.378,0.786,23.193,-8.789,13.794,34.0,-78.3,-80.9
6.730,9.410,-0.381,0.900,26.367,-1.099,15.137,33.5,-78.5,-80.2
6.740,8.666,-0.281,1.174,31.982,2.258,15.503,32.9,-78.6,-79.3
6.750,8.080,-0.094,1.117,35.339,-0.061,15.076,32.4,-78.7,-78.5
6.760,7.693,0.105,0.855,35.584,-5.676,14.526,32.1,-78.9,-77.8
6.770,7.523,0.351,0.445,33.447,-10.925,14.771,32.0,-79.1,-77.4
6.780,7.365,0.643,0.255,29.663,-12.512,15.625,32.0,-79.3,-77.0
6.790,7.582,0.758,0.437,27.039,-12.085,16.846,32.0,-79.5,-76.7
6.800,7.560,1.101,0.345,28.503,-11.536,17.517,31.9,-79.8,-76.4
6.810,7.665,1.140,0.455,28.809,-12.390,18.127,31.9,-80.0,-76.1
6.820,7.917,1.055,0.541,28.198,-16.602,17.395,32.0,-80.2,-75.8
6.830,8.208,0.941,0.367,27.527,-20.142,15.564,32.2,-80.5,-75.8
6.840,8.325,0.921,0.043,26.672,-20.630,15.320,32.5,-80.8,-75.8
6.850,8.526,0.910,-0.211,24.597,-16.785,15.869,32.8,-81.0,-75.8
6.860,8.421,0.843,-0.160,21.973,-8.789,16.724,32.8,-81.3,-75.5
6.870,8.463,0.545,0.233,18.860,-2.075,16.602,32.4,-81.4,-74.9
6.880,8.538,0.464,0.531,16.235,1.404,15.259,31.7,-81.5,-74.1
6.890,8.511,0.420,0.650,14.099,3.723,14.038,30.9,-81.6,-73.2
6.900,8.750,0.664,0.424,11.536,6.287,13.489,30.1,-81.7,-72.2
6.910,8.914,0.925,0.138,9.094,9.827,14.099,29.2,-81.7,-71.2
6.920,9.000,0.936,-0.023,6.226,13.306,13.733,28.3,-81.7,-70.1
6.930,9.053,1.260,-0.307,5.737,16.907,12.756,27.3,-81.6,-69.1
6.940,9.132,1.168,-0.446,7.019,20.020,11.353,26.4,-81.6,-68.2
6.950,9.089,0.929,-0.640,9.033,22.705,10.010,25.6,-81.5,-67.2
6.960,9.252,0.268,-0.191,5.676,25.513,8.789,24.7,-81.3,-66.2
6.970,9.613,-0.252,0.624,1.282,22.217,6.714,23.7,-81.2,-65.2
6.980,10.189,-1.034,0.734,2.258,12.024,4.272,22.9,-81.1,-64.3
6.990,10.981,-1.583,0.261,1.770,-0.061,0.854,22.3,-81.2,-63.7
7.000,11.367,-1.611,0.242,1.038,-10.803,-3.540,22.2,-81.3,-63.6
7.010,10.958,-1.218,0.748,2.075,-23.743,-8.362,22.7,-81.6,-64.2
7.020,10.935,-0.810,1.966,1.709,-44.189,-14.954,24.2,-81.9,-65.6
7.030,10.850,1.660,1.995,-5.188,-68.848,-22.156,27.1,-82.4,-68.6
7.040,11.714,3.956,1.681,-12.878,-63.171,-11.963,31.0,-82.9,-72.6
7.050,12.842,3.822,2.741,-8.728,-31.006,8.728,33.3,-83.1,-75.1
7.060,12.998,2.219,7.858,-18.066,-22.339,22.400,33.0,-83.3,-74.9
7.070,12.569,2.347,7.843,-19.775,-62.500,29.602,32.1,-83.5,-74.2
7.080,12.817,2.615,1.743,-15.320,-96.130,39.978,33.0,-84.3,-75.2
7.090,13.111,1.131,-3.988,-25.391,-73.730,53.162,34.2,-85.2,-76.6
7.100,12.237,-1.279,-2.432,-25.391,0.183,57.190,30.4,-85.9,-73.1
7.110,10.717,-3.379,4.808,-14.099,36.316,44.312,21.3,-85.9,-64.2
7.120,10.505,-2.705,8.008,5.432,9.033,26.550,13.4,-85.7,-56.3
7.130,10.876,-0.075,5.126,21.545,-24.719,18.799,9.5,-85.6,-52.2
7.140,11.134,1.219,1.490,20.020,-34.180,19.226,7.7,-85.8,-50.1
7.150,11.628,1.310,0.418,3.967,-3.845,20.691,5.9,-85.9,-48.2
7.160,11.514,1.367,1.526,-8.789,21.240,15.625,3.9,-85.8,-46.3
7.170,10.972,1.105,2.133,-15.625,15.320,6.104,3.2,-85.6,-45.7
7.180,10.688,0.748,1.395,-18.127,5.981,-2.625,3.5,-85.4,-46.2
7.190,10.819,0.577,0.990,-18.921,7.385,-9.521,4.5,-85.4,-47.4
7.200,10.674,1.407,0.575,-17.334,10.498,-12.695,6.0,-85.2,-49.1
7.210,10.208,2.399,0.130,-15.503,18.677,-11.230,7.9,-85.1,-51.1
7.220,9.130,2.519,0.138,-13.672,31.677,-6.165,9.3,-84.8,-52.7
7.230,8.209,2.218,0.525,-12.817,40.833,-1.892,9.9,-84.4,-53.4
7.240,7.672,1.921,1.088,-15.259,38.147,-0.061,9.9,-84.0,-53.6
7.250,7.635,1.746,1.232,-17.944,29.785,0.122,9.9,-83.7,-53.7
7.260,7.723,1.399,0.978,-20.996,24.475,-0.122,9.9,-83.4,-53.9
7.270,7.732,0.955,0.703,-23.376,21.729,-1.282,9.8,-83.2,-54.1
7.280,7.906,0.150,0.554,-24.170,19.836,-4.700,9.8,-83.0,-54.3
7.290,7.915,-0.031,0.533,-24.292,17.761,-10.864,10.0,-82.8,-54.8
7.300,7.615,-0.382,0.585,-23.987,17.578,-15.015,10.5,-82.6,-55.5
7.310,7.480,-0.349,0.521,-22.827,19.775,-15.686,11.0,-82.4,-56.3
7.320,7.398,-0.470,0.624,-23.621,23.499,-15.442,11.5,-82.2,-56.9
7.330,7.273,-0.277,0.966,-22.888,26.733,-15.015,11.7,-81.9,-57.4
7.340,7.125,-0.280,1.039,-21.851,27.161,-14.709,12.0,-81.6,-57.9
7.350,7.249,0.396,0.952,-22.949,24.536,-14.282,12.2,-81.4,-58.4
7.360,7.726,0.796,0.797,-24.719,17.395,-12.634,12.6,-81.1,-59.0
7.370,8.352,1.107,0.371,-24.170,11.963,-11.169,13.1,-81.0,-59.7
7.380,8.467,1.493,-0.124,-21.790,9.644,-9.949,13.7,-80.9,-60.5
7.390,8.580,1.811,-0.730,-21.484,6.958,-9.277,14.3,-80.9,-61.4
7.400,8.631,2.004,-1.305,-21.851,2.930,-9.521,15.2,-80.9,-62.5
7.410,8.693,2.072,-1.740,-23.804,-2.747,-9.827,16.2,-81.0,-63.7
7.420,8.516,2.203,-2.086,-26.611,-8.484,-10.620,17.4,-81.1,-65.2
7.430,8.942,2.200,-2.026,-29.480,-10.010,-11.353,18.8,-81.3,-66.9
7.440,9.089,2.223,-1.384,-29.968,-6.592,-12.451,20.2,-81.4,-68.6
7.450,9.134,2.262,-0.432,-31.311,-5.310,-14.099,21.6,-81.5,-70.3
7.460,9.786,2.222,0.748,-32.715,-8.423,-14.954,23.1,-81.5,-72.1
7.470,10.590,2.013,1.468,-31.982,-16.907,-12.756,24.5,-81.6,-73.8
7.480,11.218,1.135,2.546,-29.175,-27.283,-8.606,25.8,-81.8,-75.4
7.490,11.829,-1.096,6.379,-23.193,-41.992,-8.179,26.9,-82.0,-76.8
7.500,14.070,-4.975,8.315,-4.517,-67.139,-24.170,28.3,-82.3,-78.4
7.510,16.554,-7.914,5.399,19.409,-65.979,-53.894,31.1,-82.6,-81.1
7.520,16.013,-4.865,3.066,38.879,-35.278,-77.148,34.9,-82.6,-84.6
7.530,12.807,-0.743,2.793,42.542,-12.451,-76.111,39.2,-82.4,-88.6
7.540,10.885,2.098,2.381,49.866,9.583,-58.533,42.5,-81.9,-91.4
7.550,9.828,3.413,2.193,47.241,26.123,-39.917,44.2,-81.4,-92.6
7.560,8.980,5.320,3.959,33.203,31.860,-30.579,44.9,-80.8,-93.0
7.570,8.385,5.280,5.633,16.968,26.062,-24.719,45.2,-80.2,-93.0
7.580,8.380,4.048,5.144,4.150,15.564,-24.292,45.3,-79.6,-93.1
7.590,8.856,2.562,4.577,-11.597,7.629,-26.611,45.6,-79.2,-93.5
7.600,10.456,0.263,4.623,-19.775,-15.137,-34.302,46.4,-78.9,-94.5
7.610,12.879,-1.559,4.441,-13.306,-43.884,-43.762,48.2,-78.8,-96.6
7.620,14.292,-1.885,2.649,5.371,-63.599,-46.936,51.1,-78.9,-99.5
7.630,14.574,-0.967,0.188,28.137,-57.800,-39.612,54.5,-79.0,-102.8
7.640,13.751,0.553,-1.230,37.048,-26.428,-27.161,57.3,-79.1,-105.2
7.650,12.295,1.235,0.232,29.419,2.075,-14.648,58.5,-79.1,-106.2
7.660,10.045,1.806,2.094,22.095,10.437,-7.324,58.6,-79.0,-106.0
7.670,9.416,1.624,2.651,17.578,4.578,-3.357,58.4,-78.9,-105.6
7.680,8.901,1.699,1.898,11.719,-1.038,-0.977,58.3,-78.8,-105.3
7.690,8.631,1.101,1.611,6.165,0.122,2.136,58.2,-78.8,-105.2
7.700,8.688,0.353,1.708,1.770,0.977,4.639,57.8,-78.9,-104.8
7.710,8.529,-0.242,1.681,1.953,-1.221,5.493,57.4,-78.9,-104.4
7.720,8.094,-0.860,1.519,4.395,-6.470,9.277,57.0,-79.1,-104.0
7.730,7.893,-1.017,0.874,7.263,-12.512,15.015,56.8,-79.3,-103.7
7.740,7.569,-1.070,0.281,11.230,-15.808,21.118,56.8,-79.7,-103.5
7.750,7.698,-0.658,-0.034,11.230,-17.212,25.269,56.8,-80.1,-103.4
7.760,7.946,-0.144,0.017,11.169,-15.137,27.954,56.7,-80.4,-103.2
7.770,8.082,0.429,-0.186,13.367,-13.062,28.809,56.6,-80.8,-103.0
7.780,7.998,0.794,-0.496,14.771,-10.071,28.687,56.4,-81.2,-102.7
7.790,7.682,0.899,-0.505,14.832,-7.080,27.405,56.3,-81.5,-102.4
7.800,7.291,0.916,-0.293,14.771,-5.981,24.658,56.1,-81.7,-102.0
7.810,6.953,0.722,-0.429,14.893,-6.042,21.301,55.9,-82.0,-101.7
7.820,7.048,0.757,-0.647,12.390,-4.333,17.883,55.9,-82.2,-101.5
7.830,7.004,0.425,-0.853,9.888,-0.488,15.015,55.7,-82.4,-101.2
7.840,6.794,0.656,-0.619,2.686,4.761,10.193,55.4,-82.5,-100.8
7.850,6.774,0.646,-0.551,-1.526,8.545,5.676,54.8,-82.5,-100.3
7.860,6.744,0.616,-0.380,-3.296,11.475,0.427,54.3,-82.5,-99.8
7.870,7.047,0.669,-0.174,-1.404,15.015,-2.930,53.7,-82.5,-99.2
7.880,7.365,0.463,-0.083,2.319,17.639,-3.845,53.0,-82.3,-98.5
7.890,7.405,-0.181,-0.041,5.005,16.479,-3.418,52.3,-82.2,-97.7
7.900,6.792,-1.095,0.086,5.737,11.475,-2.747,51.7,-82.2,-97.0
7.910,5.958,-1.889,0.638,3.662,2.441,-3.662,51.3,-82.2,-96.6
7.920,5.669,-2.276,1.761,0.977,-12.329,-6.653,51.4,-82.3,-96.7
7.930,5.820,-1.791,2.572,-1.770,-34.302,-10.315,52.5,-82.5,-97.8
7.940,6.134,-0.585,2.455,-4.822,-53.833,-9.155,54.9,-82.7,-100.3
7.950,6.549,-0.331,5.200,-17.090,-65.369,-4.578,58.3,-83.0,-103.9
7.960,7.134,-1.217,11.684,-31.067,-87.463,0.977,61.6,-83.3,-107.5
7.970,12.521,3.475,10.217,-10.864,-139.526,12.329,66.5,-83.7,-112.7
7.980,19.611,11.835,2.273,-3.235,-174.439,59.265,78.2,-84.4,-124.5
7.990,19.611,3.649,-6.927,-11.353,-135.315,109.680,94.5,-85.1,-141.0
8.000,15.782,-0.916,-7.505,-15.991,-11.230,98.511,106.7,-86.0,-153.3
8.010,13.423,-3.479,6.377,-17.212,60.913,73.181,105.8,-86.9,-152.5
8.020,13.572,-3.844,10.774,14.709,22.339,44.861,91.6,-87.8,-138.4
8.030,13.091,-0.360,1.695,43.762,-14.282,21.362,83.5,-88.2,-129.8
8.040,12.682,1.604,-2.364,39.978,10.437,14.587,82.2,-88.4,-128.1
8.050,12.471,1.805,-0.009,12.634,36.255,11.902,74.4,-88.4,-120.1
8.060,12.206,1.627,3.022,-7.324,27.039,5.249,63.1,-88.3,-108.8
8.070,12.357,2.126,2.892,-9.338,5.981,-2.197,57.4,-88.1,-103.2
8.080,12.799,2.787,1.210,-4.028,-7.568,-6.714,58.2,-87.9,-104.1
8.090,13.055,2.884,0.515,-3.235,-4.761,-7.019,61.4,-87.8,-107.4
8.100,12.647,2.538,1.087,-3.113,2.808,-1.953,62.3,-87.7,-108.3
8.110,12.332,2.023,0.984,-4.578,10.620,3.967,60.4,-87.5,-106.4
8.120,11.582,1.708,0.523,-5.127,20.386,9.338,56.2,-87.5,-102.2
8.130,11.104,1.553,0.704,-7.507,28.931,12.939,50.2,-87.3,-96.3
8.140,10.736,1.450,0.931,-10.498,33.875,14.893,43.3,-87.2,-89.5
8.150,10.353,0.777,0.979,-10.620,34.912,13.367,37.0,-86.9,-83.3
8.160,9.626,0.362,0.901,-7.996,35.156,9.521,31.8,-86.7,-78.1
8.170,9.365,0.123,0.928,-6.531,34.973,5.371,27.7,-86.4,-74.1
8.180,9.144,-0.397,0.796,-5.310,33.386,1.892,24.7,-86.1,-71.2
8.190,8.754,-0.491,0.521,-4.150,34.729,0.366,22.2,-85.8,-68.7
8.200,8.344,-0.519,0.588,-4.517,36.499,0.671,20.0,-85.5,-66.5
8.210,8.025,-0.104,0.613,-4.578,36.438,1.465,18.0,-85.1,-64.6
8.220,7.390,0.182,1.002,-2.014,36.072,2.502,16.4,-84.8,-63.0
8.230,7.231,0.280,1.202,0.671,28.809,3.235,15.0,-84.5,-61.7
8.240,7.298,0.383,1.011,3.845,24.048,4.089,14.1,-84.2,-60.6
8.250,7.467,0.637,0.782,7.324,17.151,5.249,13.3,-84.0,-59.8
8.260,7.727,0.730,0.099,7.874,12.207,6.287,12.7,-83.9,-59.1
8.270,7.514,0.783,-0.477,7.996,16.235,6.897,12.2,-83.8,-58.5
8.280,7.439,0.680,-0.466,5.371,19.104,7.507,11.5,-83.7,-57.8
8.290,7.472,0.480,-0.517,3.235,20.020,7.263,10.9,-83.6,-57.1
8.300,7.517,0.530,-0.331,0.732,18.921,6.836,10.2,-83.5,-56.3
8.310,7.478,0.966,-0.408,-1.099,15.320,5.859,9.6,-83.4,-55.8
8.320,7.013,1.373,-0.436,-4.578,11.841,5.676,9.4,-83.3,-55.6
8.330,6.945,1.602,-0.081,-8.667,6.226,5.737,9.3,-83.3,-55.5
8.340,7.224,1.936,0.299,-11.658,-1.465,6.042,9.3,-83.3,-55.6
8.350,7.700,2.141,0.581,-13.000,-10.071,6.653,9.4,-83.4,-55.9
8.360,8.420,1.890,0.515,-12.939,-15.991,9.583,9.5,-83.6,-56.1
8.370,8.889,1.089,0.383,-15.259,-19.714,14.832,9.1,-83.8,-55.8
8.380,9.108,0.050,0.719,-17.700,-22.827,20.691,7.7,-84.0,-54.6
8.390,8.996,-1.216,1.314,-13.611,-25.513,23.804,5.4,-84.3,-52.5
8.400,8.930,-2.419,3.118,-3.601,-27.222,22.217,2.4,-84.6,-49.5
8.410,10.006,-2.446,4.999,2.197,-36.316,13.611,-0.5,-84.8,-46.5
8.420,13.010,-1.998,4.381,4.517,-44.983,-6.409,-1.6,-85.0,-45.4
8.430,17.044,-2.472,5.254,17.273,-22.705,-25.818,-0.2,-85.2,-46.7
8.440,17.867,-2.723,5.182,38.025,-8.301,-44.983,3.6,-85.1,-50.2
8.450,14.400,-0.728,2.328,62.622,9.460,-48.645,8.1,-84.9,-54.2
8.460,10.531,2.443,0.842,65.857,37.537,-34.363,12.3,-84.5,-57.7
8.470,8.274,4.136,2.569,43.396,42.236,-16.846,15.0,-84.0,-59.9
8.480,7.881,3.592,3.519,15.991,13.672,-7.141,16.7,-83.6,-61.4
8.490,8.246,2.951,3.228,0.122,-8.606,-7.080,18.3,-83.5,-62.9
8.500,8.787,2.163,2.414,-5.188,-14.893,-10.376,20.1,-83.5,-64.8
8.510,9.288,0.377,2.125,2.441,-9.155,-10.681,21.6,-83.5,-66.3
8.520,10.512,-1.564,2.521,17.273,-7.751,-12.146,22.5,-83.5,-67.1
8.530,11.825,-2.774,2.596,34.546,-10.193,-17.212,23.3,-83.5,-67.6
8.540,12.724,-2.769,1.798,47.485,-13.977,-23.193,24.6,-83.5,-68.4
8.550,12.383,-1.951,1.235,55.847,-8.301,-27.222,26.4,-83.5,-69.8
8.560,11.077,-0.708,1.641,58.594,-3.052,-26.855,28.5,-83.5,-71.3
8.570,10.247,0.620,1.970,59.448,-0.916,-21.545,30.5,-83.4,-72.6
8.580,10.111,1.217,1.928,57.861,0.549,-14.099,32.1,-83.3,-73.7
8.590,9.978,1.497,1.939,52.246,1.038,-8.728,33.3,-83.2,-74.4
8.600,9.817,1.222,2.067,45.166,-0.183,-5.493,34.2,-83.1,-74.8
8.610,9.597,0.901,1.825,41.992,-0.854,-3.296,34.9,-83.0,-75.1
8.620,9.151,0.443,1.727,41.443,0.732,-0.549,35.2,-83.0,-75.0
8.630,8.979,-0.068,1.655,41.565,0.366,2.502,35.2,-83.0,-74.5
8.640,9.011,-0.623,1.415,43.701,0.671,3.906,34.9,-83.0,-73.9
8.650,8.888,-0.789,1.129,47.546,1.404,4.272,34.6,-83.0,-73.0
8.660,8.885,-0.720,0.838,50.415,0.366,3.662,34.3,-83.0,-72.2
8.670,9.097,-0.544,0.675,51.392,-0.732,2.502,34.2,-83.1,-71.7
8.680,8.885,-0.274,0.344,52.490,-1.526,2.625,34.4,-83.2,-71.3
8.690,8.494,0.035,0.291,52.490,-1.282,4.150,34.6,-83.2,-71.0
8.700,8.473,0.164,0.382,52.490,-1.099,6.470,34.7,-83.3,-70.6
8.710,8.760,0.096,0.371,54.688,-0.610,7.751,34.7,-83.4,-70.0
8.720,8.775,0.121,0.442,57.617,0.122,7.813,34.7,-83.5,-69.4
8.730,8.726,0.109,0.564,59.753,-0.732,7.751,34.6,-83.5,-68.8
8.740,8.851,0.128,0.504,60.791,-2.747,6.348,34.8,-83.6,-68.3
8.750,9.065,0.171,0.365,60.059,-1.892,4.089,35.1,-83.7,-68.0
8.760,9.115,0.183,0.375,58.960,0.488,1.892,35.4,-83.7,-67.8
8.770,9.048,0.213,0.570,59.143,1.465,1.282,35.8,-83.8,-67.6
8.780,9.132,0.309,0.468,60.913,0.977,1.709,36.2,-83.8,-67.3
8.790,9.216,0.540,0.508,61.951,1.099,2.197,36.6,-83.8,-67.1
8.800,9.415,0.522,0.645,63.843,1.160,2.319,37.0,-83.8,-66.9
8.810,9.533,0.606,0.558,66.467,1.892,2.502,37.4,-83.8,-66.6
8.820,9.512,0.472,0.403,68.604,3.845,3.174,37.8,-83.8,-66.3
8.830,9.492,0.394,0.230,70.190,7.080,4.028,37.9,-83.8,-65.7
8.840,9.241,0.405,0.341,70.374,10.742,4.639,37.7,-83.8,-64.8
8.850,8.950,0.358,0.395,71.167,12.756,5.066,37.4,-83.7,-63.8
8.860,8.757,0.245,0.582,71.899,14.221,5.005,37.0,-83.7,-62.6
8.870,8.808,0.347,0.876,71.777,13.306,4.272,36.5,-83.6,-61.5
8.880,9.167,0.520,0.998,71.533,10.376,4.028,36.3,-83.6,-60.5
8.890,9.771,0.563,0.773,73.303,7.080,3.967,36.3,-83.5,-59.8
8.900,9.963,0.499,0.606,74.524,4.822,3.845,36.4,-83.5,-59.2
8.910,9.986,0.256,0.396,76.233,3.601,2.930,36.8,-83.5,-58.8
8.920,9.573,-0.033,0.737,74.158,5.188,1.831,37.1,-83.5,-58.3
8.930,9.222,-0.186,1.333,70.374,5.981,1.709,37.1,-83.5,-57.6
8.940,9.319,-0.412,1.697,69.092,3.723,2.075,37.0,-83.5,-56.8
8.950,9.784,-0.256,1.879,68.115,-1.160,3.296,36.9,-83.5,-56.1
8.960,10.486,0.324,1.519,71.899,-7.385,5.127,37.2,-83.6,-55.6
8.970,11.066,0.403,1.981,77.271,-13.428,7.996,37.8,-83.7,-55.4
8.980,11.995,1.448,1.817,81.299,-25.513,9.216,38.9,-83.9,-55.7
8.990,13.250,3.883,0.706,75.378,-31.250,14.221,40.8,-84.2,-56.9
9.000,13.665,4.920,-1.414,64.392,-13.550,28.442,42.4,-84.4,-57.8
9.010,12.571,3.093,-0.961,57.678,28.320,38.086,41.0,-84.5,-55.8
9.020,10.993,0.739,1.354,60.974,55.481,35.522,36.4,-84.3,-50.5
9.030,10.266,-0.424,3.438,66.711,50.659,25.879,31.4,-84.0,-44.9
9.040,10.671,-0.654,3.516,75.378,28.137,17.517,28.1,-83.7,-40.8
9.050,11.148,-0.642,1.933,77.026,16.907,18.127,25.9,-83.6,-37.8
9.060,10.924,-1.011,0.640,80.994,27.344,22.217,23.6,-83.5,-34.7
9.070,9.878,-0.387,1.104,85.022,40.588,24.414,20.9,-83.2,-31.1
9.080,9.448,0.511,2.503,82.764,37.903,29.297,18.2,-82.9,-27.6
9.090,9.421,1.227,2.150,83.191,26.672,36.194,15.7,-82.7,-24.3
9.100,9.439,1.106,0.903,85.754,26.794,42.542,13.2,-82.5,-20.9
9.110,9.237,0.705,0.431,85.083,35.767,46.326,10.5,-82.3,-17.3
9.120,9.161,0.315,1.049,85.938,39.185,46.692,7.7,-82.0,-13.6
9.130,9.179,0.244,1.306,89.905,32.898,46.814,5.1,-81.7,-10.0
9.140,9.218,0.406,0.918,94.116,26.123,46.143,2.8,-81.5,-6.8
9.150,9.184,0.552,0.645,94.482,25.452,45.715,0.8,-81.3,-3.8
9.160,9.176,0.588,1.023,93.506,27.405,45.044,-1.0,-81.0,-1.0
9.170,9.064,0.415,1.463,95.398,26.978,43.701,-2.6,-80.8,1.6
9.180,9.322,0.474,1.573,99.304,24.170,41.016,-3.9,-80.5,3.9
9.190,9.427,0.830,0.955,102.600,20.569,38.208,-4.9,-80.2,6.0
9.200,9.559,1.277,0.618,102.661,17.883,36.560,-5.7,-80.1,7.8
9.210,9.580,1.436,0.452,103.149,16.052,35.400,-6.2,-79.9,9.4
9.220,9.646,1.566,0.745,106.384,15.991,34.241,-6.6,-79.8,10.9
9.230,9.819,1.791,0.959,109.680,15.625,32.593,-6.8,-79.6,12.2
9.240,9.887,2.006,1.215,111.023,16.724,31.006,-6.8,-79.5,13.4
9.250,9.464,2.060,1.314,109.741,17.944,29.175,-6.7,-79.3,14.3
9.260,9.151,1.743,1.390,106.873,16.541,26.489,-6.4,-79.1,15.2
9.270,8.885,1.440,1.842,103.027,13.123,23.621,-6.1,-79.0,16.0
9.280,8.957,1.003,1.957,101.563,5.310,21.118,-5.8,-78.9,16.7
9.290,9.442,0.624,1.147,103.210,-1.160,19.287,-5.6,-78.9,17.5
9.300,9.756,1.034,0.363,104.553,-3.784,19.531,-5.3,-78.9,18.4
9.310,9.866,1.469,0.529,103.394,-4.944,22.278,-5.2,-79.0,19.2
9.320,9.638,1.660,0.894,99.243,-5.615,24.170,-5.0,-79.1,20.2
9.330,9.533,1.594,1.405,95.215,-7.385,23.438,-4.9,-79.2,21.1
9.340,9.727,1.854,1.657,89.783,-10.986,20.752,-4.8,-79.3,21.9
9.350,9.909,2.084,1.623,83.496,-14.404,17.883,-4.5,-79.5,22.5
9.360,9.794,2.526,1.776,78.369,-13.123,14.465,-4.0,-79.6,22.8
9.370,9.422,3.134,1.898,75.256,-10.620,10.437,-3.3,-79.7,22.8
9.380,9.057,3.403,1.955,73.853,-7.935,5.920,-2.1,-79.8,22.4
9.390,8.494,3.075,1.942,74.707,-2.747,1.343,-0.7,-79.8,21.8
9.400,8.264,1.812,2.402,77.576,3.540,-3.357,0.9,-79.8,21.0
9.410,8.275,0.286,2.785,80.872,6.226,-9.521,2.5,-79.7,20.2
9.420,8.558,-0.789,2.588,84.595,2.625,-15.381,4.0,-79.6,19.5
9.430,9.026,-1.229,1.916,85.876,-5.554,-18.616,5.6,-79.6,18.7
9.440,9.699,-1.342,1.213,83.862,-13.245,-17.822,7.1,-79.6,18.0
9.450,10.201,-1.451,0.695,81.177,-15.381,-13.611,8.5,-79.8,17.4
9.460,10.169,-1.305,0.484,80.383,-12.573,-8.850,9.6,-80.0,17.1
9.470,9.816,-1.176,0.632,79.895,-9.583,-3.235,10.4,-80.2,17.1
9.480,10.201,-0.487,0.830,81.909,-10.681,1.282,11.0,-80.3,17.3
9.490,10.145,-0.062,0.669,82.031,-12.878,5.432,11.6,-80.5,17.6
9.500,10.653,-0.048,0.433,81.543,-14.954,6.470,12.1,-80.7,17.8
9.510,11.032,0.042,0.472,82.764,-13.855,3.967,12.8,-80.9,18.0
9.520,11.336,0.006,0.387,86.060,-11.353,2.075,13.7,-81.1,18.0
9.530,11.172,-0.144,0.238,87.769,-6.165,1.953,14.5,-81.2,18.0
