time,acc_x,acc_y,acc_z,gyro_x,gyro_y,gyro_z,roll,pitch,yaw
7.530,13.305,0.672,0.820,-10.925,40.405,14.099,2.8,-85.1,-38.9
7.540,11.610,0.394,1.727,-14.771,50.354,7.874,3.8,-84.9,-40.3
7.550,11.442,0.808,2.108,-14.832,46.570,2.930,5.3,-84.7,-42.0
7.560,10.236,1.772,1.374,-8.301,44.067,2.197,7.1,-84.5,-44.1
7.570,9.685,2.104,1.000,-4.883,46.265,6.409,9.0,-84.3,-46.1
7.580,9.272,1.946,1.009,-5.310,46.631,11.292,10.2,-84.0,-47.6
7.590,8.878,2.003,1.153,-9.155,44.434,13.367,11.1,-83.8,-48.6
7.600,8.818,1.977,1.134,-12.085,44.312,15.564,11.7,-83.7,-49.5
7.610,8.362,1.958,0.937,-15.686,44.861,15.320,12.1,-83.5,-50.2
7.620,8.519,1.596,0.794,-17.334,48.157,13.916,12.6,-83.3,-50.9
7.630,8.288,1.178,0.529,-19.287,51.270,9.705,13.0,-83.0,-51.7
7.640,7.908,0.528,0.259,-20.752,52.246,6.409,13.5,-82.8,-52.6
7.650,7.303,-0.011,0.336,-20.752,54.810,2.197,14.1,-82.5,-53.5
7.660,6.920,-0.296,0.604,-20.386,58.167,-0.427,14.6,-82.2,-54.3
7.670,6.801,-0.484,0.668,-20.935,59.326,-0.366,15.0,-81.9,-55.0
7.680,6.564,-0.515,0.475,-19.043,59.937,0.916,15.2,-81.5,-55.6
7.690,6.266,-0.445,0.426,-20.447,59.753,3.479,15.2,-81.2,-55.9
7.700,6.549,-0.092,0.517,-21.667,58.960,5.493,15.1,-80.9,-56.2
7.710,6.770,0.151,0.560,-22.461,59.265,6.470,15.0,-80.6,-56.5
7.720,6.755,0.280,0.521,-23.438,57.983,8.667,14.9,-80.3,-56.7
7.730,7.035,0.371,0.391,-23.438,57.190,11.047,14.7,-80.0,-56.8
7.740,7.297,0.785,0.241,-22.217,54.932,12.329,14.4,-79.8,-57.0
7.750,7.473,1.177,0.128,-20.996,52.429,12.573,14.4,-79.6,-57.2
7.760,7.607,1.791,0.019,-21.057,46.936,12.146,14.4,-79.4,-57.6
7.770,7.844,2.411,-0.268,-22.705,38.391,11.169,14.8,-79.3,-58.4
7.780,8.415,2.683,-0.408,-24.841,31.494,10.376,15.5,-79.3,-59.4
7.790,9.319,2.793,-0.147,-25.757,25.330,9.460,16.3,-79.3,-60.6
7.800,10.239,2.958,0.387,-23.499,19.165,8.606,17.2,-79.4,-61.9
7.810,11.385,2.466,0.569,-19.348,12.512,10.071,18.3,-79.5,-63.3
7.820,11.454,1.614,0.473,-14.404,5.005,12.695,19.3,-79.8,-64.6
7.830,10.987,0.148,0.815,-9.888,-3.296,15.808,20.1,-80.1,-65.7
7.840,10.652,-1.286,2.262,-1.953,-9.766,15.015,20.8,-80.4,-66.5
7.850,10.767,-2.735,5.475,8.423,-20.142,6.348,21.6,-80.8,-67.4
7.860,12.208,-4.211,5.839,13.184,-33.081,-10.559,23.1,-81.1,-69.0
7.870,14.701,-4.414,5.060,14.709,-25.757,-26.917,25.3,-81.4,-71.3
7.880,15.720,-2.402,4.010,18.372,-11.169,-41.565,28.4,-81.5,-74.4
7.890,14.610,0.385,4.514,33.081,10.071,-44.373,32.1,-81.4,-78.0
7.900,13.607,2.449,5.196,47.974,31.128,-35.950,35.1,-81.0,-80.7
7.910,11.944,4.388,4.342,50.476,37.170,-25.574,37.3,-80.5,-82.6
7.920,9.972,4.901,4.488,32.715,30.457,-17.456,39.5,-80.0,-84.6
7.930,8.991,3.905,5.030,14.709,26.001,-11.597,41.1,-79.6,-86.2
7.940,8.523,3.118,4.319,-1.709,23.010,-9.949,42.3,-79.3,-87.4
7.950,8.647,2.151,3.641,-17.822,21.851,-9.949,43.2,-79.0,-88.7
7.960,9.892,0.478,3.583,-26.550,18.860,-10.498,43.9,-78.7,-89.8
7.970,11.501,-1.116,3.760,-21.484,15.808,-10.437,44.5,-78.6,-90.8
7.980,12.822,-1.431,2.758,-2.319,8.789,-7.751,45.2,-78.5,-91.7
7.990,13.524,-1.161,0.865,18.799,3.784,0.183,46.2,-78.6,-92.8
8.000,12.797,-0.707,-0.260,30.884,16.418,11.292,47.1,-78.8,-93.6
8.010,11.217,-0.695,1.259,33.508,33.142,19.714,47.2,-78.9,-93.5
8.020,9.709,-0.274,2.447,36.804,30.518,22.644,46.8,-78.9,-92.9
8.030,9.140,0.324,1.920,38.940,23.560,22.217,46.7,-79.0,-92.5
8.040,8.483,0.502,1.286,37.231,22.339,21.057,46.9,-79.1,-92.5
8.050,7.931,0.193,1.440,33.081,22.400,20.935,47.2,-79.1,-92.5
8.060,7.682,0.032,1.703,31.128,18.311,21.240,47.4,-79.2,-92.6
8.070,7.933,0.028,1.536,30.518,13.184,22.278,47.8,-79.3,-92.8
8.080,8.286,0.372,1.005,29.907,10.376,25.330,48.2,-79.5,-93.1
8.090,8.645,0.287,0.703,28.503,10.498,30.823,48.7,-79.7,-93.4
8.100,8.705,0.312,0.195,28.564,12.207,36.377,48.9,-80.0,-93.5
8.110,8.711,0.136,0.066,28.625,15.381,39.551,49.0,-80.3,-93.4
8.120,8.689,-0.131,0.282,28.503,17.944,37.964,48.9,-80.6,-93.1
8.130,8.596,-0.592,0.693,28.564,22.278,35.339,48.7,-80.8,-92.7
8.140,8.531,-0.570,1.141,31.128,28.809,32.959,48.0,-81.0,-91.9
8.150,8.165,-0.441,1.215,34.851,37.720,33.081,47.0,-81.1,-90.7
8.160,7.586,-0.847,1.442,39.856,47.363,35.889,45.4,-81.1,-88.8
8.170,7.016,-0.843,1.494,44.495,53.589,37.170,43.4,-81.1,-86.5
8.180,6.612,-0.607,1.385,45.532,53.467,37.964,41.4,-81.0,-84.1
8.190,6.647,-0.421,1.183,43.762,47.058,38.757,39.6,-81.0,-82.0
8.200,7.023,0.248,0.810,39.917,37.781,38.086,38.2,-81.0,-80.4
8.210,7.773,0.600,0.152,33.875,31.067,37.109,37.4,-81.1,-79.3
8.220,8.640,0.897,-0.570,27.954,29.419,35.645,36.8,-81.3,-78.5
8.230,9.303,1.304,-1.080,22.217,32.715,33.752,36.4,-81.4,-78.0
8.240,9.304,1.253,-1.146,21.179,38.757,31.311,36.0,-81.4,-77.5
8.250,9.119,1.211,-1.108,25.391,43.335,28.076,35.6,-81.4,-76.9
8.260,8.684,1.199,-0.872,30.090,45.837,24.780,35.2,-81.4,-76.4
8.270,8.548,0.873,-0.354,34.241,46.448,21.973,35.0,-81.3,-76.0
8.280,8.376,0.336,0.518,33.630,45.471,19.043,34.8,-81.2,-75.5
8.290,8.523,-0.443,1.402,29.968,41.138,16.235,34.5,-81.1,-75.1
8.300,8.577,-0.835,1.888,25.146,34.119,13.062,34.3,-81.0,-74.7
8.310,8.481,-1.032,2.564,18.188,24.780,9.094,34.4,-81.0,-74.8
8.320,8.145,-0.655,2.809,12.573,13.489,4.944,34.9,-81.0,-75.3
8.330,8.251,0.066,2.498,8.972,4.456,3.357,36.0,-81.1,-76.4
8.340,8.461,1.730,1.432,9.033,-2.625,5.005,37.5,-81.2,-78.1
8.350,8.925,2.453,1.319,2.991,-6.592,8.850,39.7,-81.3,-80.3
8.360,9.757,2.923,3.048,0.122,-5.493,13.428,41.7,-81.5,-82.5
8.370,11.366,2.893,6.246,3.845,-12.024,25.391,43.1,-81.6,-84.0
8.380,13.403,2.068,6.667,12.207,-36.865,48.096,43.9,-82.0,-84.9
8.390,14.182,0.346,3.869,17.517,-56.885,74.524,44.6,-82.7,-85.6
8.400,13.070,-1.073,0.649,11.963,-51.270,93.872,44.6,-83.8,-85.5
8.410,11.695,-2.472,0.628,7.324,-8.728,100.952,41.4,-84.8,-82.4
8.420,10.363,-2.196,3.777,18.799,28.870,97.412,33.1,-85.4,-74.0
8.430,10.385,-1.903,5.492,36.560,33.508,90.820,22.5,-85.6,-63.2
8.440,11.412,-0.570,4.502,53.833,25.024,81.787,13.0,-85.6,-53.4
8.450,12.433,1.158,2.341,62.988,26.306,71.838,6.1,-85.6,-46.0
8.460,13.002,2.435,0.971,54.382,42.603,62.805,1.5,-85.5,-40.9
8.470,15.358,2.615,1.401,31.433,51.758,51.514,-1.3,-85.3,-37.9
8.480,14.832,2.656,1.083,17.822,52.979,34.790,-2.0,-85.1,-37.0
8.490,12.674,3.152,1.240,10.620,54.871,20.752,-1.0,-84.8,-38.1
8.500,10.867,3.274,1.883,5.615,47.668,11.108,1.2,-84.6,-40.3
8.510,10.669,3.131,2.164,8.667,37.170,11.169,3.5,-84.4,-42.7
8.520,11.116,2.647,1.991,15.564,37.354,16.724,5.2,-84.3,-44.4
8.530,10.796,2.509,1.486,15.869,41.931,22.034,6.1,-84.1,-45.2
8.540,10.217,2.277,1.407,7.996,43.701,25.818,6.4,-83.9,-45.6
8.550,10.018,1.937,1.600,-0.183,43.884,28.442,6.2,-83.8,-45.5
8.560,10.080,1.591,1.499,-5.432,45.593,28.076,5.7,-83.6,-45.2
8.570,10.134,1.015,1.193,-6.775,51.270,23.438,5.4,-83.3,-45.1
8.580,9.587,0.528,1.000,-6.958,55.908,17.944,5.3,-83.1,-45.1
8.590,9.272,0.139,0.554,-8.789,57.983,12.695,5.5,-82.8,-45.5
8.600,8.526,-0.253,0.415,-9.644,61.218,9.094,5.8,-82.5,-46.0
8.610,8.194,-0.311,0.456,-10.620,64.941,8.606,6.0,-82.2,-46.5
8.620,7.808,-0.360,0.515,-10.193,67.871,8.972,6.1,-81.8,-46.9
8.630,7.200,-0.226,0.637,-6.714,69.092,10.498,6.2,-81.4,-47.1
8.640,6.786,-0.056,0.964,-4.211,67.993,13.123,6.1,-81.0,-47.3
8.650,6.440,0.093,0.824,-2.136,62.439,14.954,6.0,-80.7,-47.3
8.660,6.175,-0.040,0.457,-1.404,56.274,17.700,5.9,-80.4,-47.3
8.670,6.019,0.020,0.170,0.061,49.561,19.959,5.6,-80.2,-47.2
8.680,5.941,0.077,0.153,-1.953,41.382,21.423,5.3,-80.1,-47.0
8.690,6.029,0.244,-0.013,-4.089,32.410,22.583,5.0,-80.0,-46.9
8.700,6.305,0.479,-0.416,-5.554,25.085,25.085,4.6,-80.1,-46.7
8.710,6.622,0.504,-0.239,-4.395,20.874,29.663,4.1,-80.2,-46.4
8.720,7.448,0.522,0.322,-0.977,16.968,34.912,3.3,-80.4,-45.7
8.730,8.323,0.803,1.005,4.883,9.583,39.001,2.4,-80.6,-44.8
8.740,8.731,0.600,1.677,8.972,-2.441,42.847,1.2,-80.9,-43.7
8.750,9.577,-0.190,2.600,13.123,-13.306,45.593,-0.3,-81.3,-42.2
8.760,11.080,-1.043,3.921,16.907,-22.400,45.349,-2.1,-81.7,-40.3
8.770,13.073,-2.628,4.696,20.081,-25.757,42.297,-4.3,-82.1,-38.1
8.780,13.799,-3.989,5.065,28.992,-14.099,35.156,-6.6,-82.4,-35.6
8.790,13.239,-4.244,6.720,43.701,10.559,22.400,-8.2,-82.5,-33.8
8.800,13.216,-2.986,5.244,53.589,28.931,2.930,-8.0,-82.3,-33.6
8.810,12.214,-2.215,2.639,53.894,46.997,-11.292,-6.1,-82.1,-35.1
8.820,10.439,-1.539,2.473,62.073,67.200,-16.174,-3.5,-81.7,-37.2
8.830,8.914,0.521,2.270,70.129,75.378,-9.216,-1.0,-81.2,-39.2
8.840,8.219,2.742,2.855,67.566,76.111,5.554,1.0,-80.7,-40.7
8.850,7.808,4.398,3.497,54.138,52.429,15.442,2.6,-80.3,-41.9
8.860,7.766,3.378,3.453,40.039,15.625,18.005,4.1,-80.2,-43.0
8.870,8.264,1.988,2.888,38.086,-0.854,15.869,5.4,-80.4,-44.1
8.880,8.573,0.735,2.706,41.809,2.441,13.184,6.6,-80.6,-45.0
8.890,9.573,-0.337,2.004,46.509,3.662,12.573,7.6,-80.8,-45.6
8.900,11.185,-1.447,1.702,45.593,2.258,11.230,8.4,-81.0,-46.2
8.910,12.682,-1.855,2.127,48.401,12.695,10.071,9.0,-81.2,-46.4
8.920,12.985,-1.620,2.237,52.979,23.315,10.864,9.5,-81.3,-46.5
8.930,11.745,-0.782,1.969,54.382,24.414,13.733,9.8,-81.3,-46.5
8.940,10.705,-0.721,1.689,53.711,26.245,18.555,10.1,-81.3,-46.4
8.950,10.297,-0.762,1.768,54.077,33.752,21.790,10.1,-81.3,-46.0
8.960,9.959,-0.931,2.033,54.504,40.161,23.987,9.9,-81.2,-45.3
8.970,9.746,-1.163,2.303,58.289,40.833,25.513,9.5,-81.1,-44.5
8.980,9.878,-1.383,2.266,63.965,38.391,27.161,9.0,-80.9,-43.5
8.990,9.975,-1.374,2.060,70.618,35.706,26.855,8.5,-80.9,-42.5
9.000,9.701,-1.146,1.715,75.073,31.250,26.978,8.2,-80.8,-41.5
9.010,9.855,-1.098,1.430,77.209,27.222,28.381,8.0,-80.8,-40.7
9.020,9.884,-0.931,1.159,78.857,26.184,29.419,7.7,-80.9,-39.8
9.030,9.751,-0.742,1.191,79.468,27.222,29.480,7.5,-80.9,-38.9
9.040,9.593,-0.423,1.263,80.688,28.137,29.419,7.4,-81.0,-38.1
9.050,9.320,-0.149,1.301,83.069,28.687,29.968,7.3,-81.0,-37.3
9.060,9.090,0.035,1.341,84.961,29.419,30.884,7.2,-81.0,-36.5
9.070,9.113,-0.169,1.360,86.975,31.982,32.043,7.2,-81.0,-35.7
9.080,9.172,-0.275,1.423,89.478,34.790,31.799,7.0,-81.0,-34.8
9.090,9.365,-0.330,1.343,90.576,36.011,31.067,6.9,-80.9,-33.9
9.100,9.529,-0.184,1.214,90.149,37.292,30.640,6.8,-80.9,-33.0
9.110,9.831,-0.093,1.071,89.233,39.246,30.884,6.7,-80.8,-32.2
9.120,9.829,-0.187,1.035,89.600,41.748,31.433,6.6,-80.7,-31.3
9.130,9.673,-0.157,1.092,90.454,43.701,32.471,6.5,-80.6,-30.3
9.140,9.364,-0.047,1.174,91.248,45.593,32.471,6.3,-80.5,-29.4
9.150,9.023,0.022,1.251,92.957,47.546,31.677,6.2,-80.3,-28.5
9.160,8.768,0.061,1.272,96.191,49.011,30.823,6.3,-80.1,-27.7
9.170,8.502,0.277,1.162,99.670,49.622,29.968,6.4,-79.9,-27.0
9.180,8.402,0.413,1.050,101.563,49.805,29.236,6.7,-79.7,-26.3
9.190,8.230,0.618,1.038,101.990,49.438,28.625,7.0,-79.6,-25.8
9.200,8.204,0.503,1.120,100.586,48.462,28.320,7.4,-79.4,-25.3
9.210,8.213,0.045,1.428,99.060,46.448,27.466,7.8,-79.2,-24.8
9.220,8.324,-0.538,1.621,98.938,42.908,26.367,8.1,-79.1,-24.3
9.230,8.409,-1.120,1.617,100.647,39.612,25.330,8.4,-79.0,-23.7
9.240,8.511,-1.629,1.221,104.126,37.048,24.780,8.6,-78.9,-23.0
9.250,8.572,-2.162,1.326,106.323,37.720,25.269,8.8,-78.9,-22.2
9.260,8.620,-2.537,1.831,108.704,38.269,27.649,8.7,-78.8,-21.2
9.270,8.917,-2.137,1.434,114.014,37.476,31.494,8.5,-78.7,-20.0
9.280,9.101,-1.453,0.869,123.901,34.790,36.499,8.3,-78.7,-18.7
9.290,9.377,-0.507,0.759,132.019,31.555,40.955,8.1,-78.8,-17.4
9.300,10.218,0.402,1.931,130.371,28.320,45.349,8.0,-78.8,-16.0
9.310,11.506,1.897,2.575,122.131,28.381,54.932,7.6,-78.9,-14.5
9.320,12.295,2.969,1.809,120.544,39.978,68.848,6.7,-78.8,-12.5
9.330,11.861,2.577,1.322,127.625,58.044,72.876,5.7,-78.7,-10.3
9.340,10.972,2.067,2.856,124.756,69.458,69.153,4.7,-78.3,-8.1
9.350,11.011,1.865,3.394,119.690,64.453,60.852,3.9,-78.0,-6.2
9.360,11.385,1.962,1.925,113.464,56.091,56.580,3.5,-77.7,-4.7
9.370,11.028,1.130,1.298,110.657,62.622,58.533,3.0,-77.4,-3.2
9.380,10.466,-0.193,1.478,117.188,69.031,58.044,2.4,-77.1,-1.5
9.390,10.147,-0.442,2.176,116.882,62.317,55.481,1.8,-76.7,0.2
9.400,10.323,-0.135,2.156,117.493,56.335,56.335,1.2,-76.5,1.9
9.410,10.311,0.233,1.715,126.221,60.547,60.974,0.6,-76.2,3.6
9.420,10.236,0.329,1.848,132.935,66.467,65.491,0.1,-75.9,5.4
9.430,10.111,0.493,1.730,136.231,63.660,67.566,-0.5,-75.5,7.3
9.440,10.147,0.733,1.670,137.451,61.279,69.031,-1.0,-75.2,9.1
9.450,9.914,0.792,1.569,139.160,62.866,70.374,-1.5,-74.9,10.9
9.460,9.582,0.877,1.635,139.893,62.988,70.374,-1.9,-74.6,12.6
9.470,9.439,0.874,1.499,139.099,60.425,69.702,-2.2,-74.3,14.3
9.480,9.376,0.974,1.241,137.940,57.922,69.336,-2.5,-74.0,15.9
9.490,9.424,0.958,1.096,138.428,55.542,69.946,-2.8,-73.8,17.5
9.500,9.483,0.590,1.192,140.381,54.688,70.740,-3.1,-73.6,19.1
9.510,9.455,0.309,1.360,143.311,53.406,70.435,-3.3,-73.4,20.8
9.520,9.516,0.585,1.628,146.057,50.720,68.970,-3.5,-73.2,22.4
9.530,9.508,0.928,1.800,148.132,47.424,66.650,-3.6,-73.0,23.9
9.540,9.382,1.421,1.743,149.292,45.593,63.293,-3.5,-72.8,25.2
9.550,9.589,2.131,1.719,148.010,44.922,60.059,-3.2,-72.7,26.3
9.560,9.623,2.827,1.845,144.348,43.396,57.068,-2.7,-72.6,27.2
9.570,9.543,3.307,1.690,140.198,40.955,54.382,-2.0,-72.5,27.9
9.580,9.227,3.440,1.646,136.292,40.283,52.551,-1.3,-72.4,28.5
9.590,8.872,3.358,1.633,133.606,40.100,52.063,-0.6,-72.4,29.1
9.600,8.745,2.995,1.908,130.737,38.086,52.307,0.0,-72.3,29.7
9.610,8.689,2.615,2.490,126.221,34.119,52.856,0.6,-72.3,30.4
9.620,8.712,1.831,2.304,120.483,27.405,54.016,0.9,-72.3,31.1
9.630,8.966,1.483,1.511,116.760,23.804,54.504,1.1,-72.4,32.0
9.640,9.178,1.768,1.076,110.657,24.048,54.138,1.3,-72.5,33.0
9.650,9.004,2.289,1.365,107.727,25.757,53.223,1.4,-72.6,33.8
9.660,8.817,2.821,1.665,104.248,24.170,50.720,1.7,-72.7,34.6
9.670,8.623,3.274,1.871,102.234,22.156,47.302,2.1,-72.8,35.1
9.680,8.559,3.242,2.089,102.051,22.034,43.823,2.7,-72.9,35.5
9.690,8.501,3.091,2.130,100.647,22.217,40.222,3.4,-73.0,35.7
9.700,8.376,2.891,2.150,96.008,20.386,36.987,4.1,-73.1,35.9
9.710,8.239,2.803,2.144,89.111,17.273,33.386,4.8,-73.2,36.0
9.720,8.320,2.984,2.377,83.008,16.235,29.480,5.6,-73.3,35.9
9.730,8.483,2.819,3.492,81.238,15.869,26.978,6.5,-73.4,35.7
9.740,9.073,2.231,4.140,82.153,10.010,25.574,7.4,-73.5,35.5
9.750,10.239,1.693,4.129,83.923,5.676,25.391,8.3,-73.7,35.4
9.760,11.416,1.002,3.905,82.031,5.615,26.123,9.0,-73.9,35.4
9.770,12.212,0.230,3.706,77.942,10.437,27.283,9.6,-74.1,35.5
9.780,12.119,-0.105,3.218,73.853,16.907,28.198,9.9,-74.2,35.8
9.790,11.166,0.162,2.504,71.106,25.940,30.273,10.1,-74.3,36.2
9.800,9.909,0.685,2.109,72.449,35.645,33.264,10.2,-74.3,36.7
9.810,9.021,0.794,1.816,75.562,43.579,36.438,10.2,-74.2,37.3
9.820,8.622,0.365,1.987,76.172,46.387,37.598,10.2,-74.1,38.0
9.830,8.218,0.020,1.685,76.050,41.748,35.400,10.2,-74.0,38.7
9.840,7.975,0.023,1.570,71.899,32.043,32.410,10.2,-74.0,39.2
9.850,8.323,0.111,1.433,65.735,23.804,30.212,10.4,-74.1,39.7
9.860,8.615,0.359,1.187,62.805,20.081,28.564,10.6,-74.2,39.9
9.870,8.891,0.587,0.989,61.829,21.240,27.954,10.9,-74.4,40.1
9.880,9.306,0.613,1.180,61.401,25.330,28.564,11.2,-74.5,40.4
9.890,9.855,0.312,1.774,62.378,29.785,29.968,11.3,-74.5,40.7
9.900,10.285,0.023,2.219,63.354,29.846,31.433,11.4,-74.6,41.1
9.910,10.524,-0.299,2.230,63.171,27.527,32.104,11.4,-74.6,41.7
9.920,10.536,-0.402,1.875,63.110,27.588,31.799,11.3,-74.7,42.2
9.930,10.375,-0.513,1.525,62.317,31.860,31.372,11.3,-74.8,42.8
9.940,9.998,-0.500,1.597,61.218,36.804,31.494,11.2,-74.8,43.4
9.950,9.704,-0.605,1.620,59.448,39.795,31.860,11.0,-74.7,44.1
9.960,9.545,-0.584,1.606,62.561,41.260,31.555,10.8,-74.7,44.8
9.970,9.407,-0.291,1.501,68.665,41.626,30.701,10.7,-74.6,45.4
9.980,9.207,-0.184,1.788,72.632,40.527,29.480,10.8,-74.6,45.9
9.990,9.191,-0.102,1.985,75.562,38.696,28.381,10.9,-74.5,46.4
10.000,9.399,-0.206,2.066,78.064,39.001,28.076,11.1,-74.5,46.9
10.010,9.735,-0.666,2.331,80.322,41.138,28.198,11.3,-74.4,47.4
10.020,9.936,-0.710,2.320,85.388,42.847,28.137,11.4,-74.3,48.0
10.030,9.692,-0.567,2.176,91.125,46.448,28.381,11.6,-74.2,48.6
10.040,9.495,-0.511,1.909,93.872,50.659,29.297,11.8,-74.0,49.2
10.050,9.297,-0.416,1.937,91.187,54.626,30.884,11.9,-73.8,49.9
10.060,9.003,-0.543,2.654,87.097,57.251,32.959,11.9,-73.6,50.7
10.070,8.964,-0.403,2.818,86.182,54.626,33.875,11.8,-73.4,51.5
10.080,9.336,-0.163,2.978,85.510,50.415,34.485,11.7,-73.2,52.3
10.090,9.527,0.549,2.526,84.106,47.485,36.743,11.7,-73.0,53.1
10.100,9.563,1.117,2.199,79.224,51.514,42.664,11.6,-72.8,53.9
10.110,9.450,1.472,1.920,77.026,59.998,48.828,11.3,-72.6,54.9
10.120,8.926,1.713,2.109,78.003,64.880,50.964,10.9,-72.4,56.0
10.130,8.701,1.806,2.583,75.317,62.927,50.781,10.6,-72.1,57.0
10.140,8.795,2.213,2.440,73.792,56.824,50.781,10.3,-71.9,58.0
10.150,9.022,2.455,1.813,71.228,50.293,52.979,10.1,-71.7,58.9
10.160,9.192,2.010,1.587,67.749,48.340,57.190,9.7,-71.6,59.8
10.170,9.246,1.568,1.987,64.514,45.593,60.608,9.2,-71.5,61.0
10.180,9.832,1.071,2.283,60.303,39.673,62.195,8.5,-71.5,62.2
10.190,10.676,0.372,2.216,57.007,35.645,63.843,7.7,-71.5,63.5
10.200,10.797,0.158,1.877,54.382,34.973,63.171,6.8,-71.6,64.9
10.210,10.434,0.346,1.159,54.260,38.330,61.157,6.0,-71.6,66.3
10.220,9.942,0.576,1.238,54.932,42.480,57.434,5.2,-71.6,67.5
10.230,9.696,0.916,1.383,57.556,43.213,52.917,4.7,-71.6,68.6
10.240,9.510,1.244,1.373,61.646,41.687,49.316,4.3,-71.5,69.4
10.250,9.284,1.107,1.427,64.636,38.940,47.668,4.1,-71.5,70.2
10.260,9.406,1.113,1.428,67.322,36.072,47.119,4.0,-71.5,70.9
10.270,9.379,1.244,1.513,67.383,33.997,47.119,3.8,-71.6,71.7
10.280,9.478,1.335,1.715,66.040,32.166,47.180,3.7,-71.6,72.4
10.290,9.522,1.283,1.742,65.918,31.189,47.241,3.6,-71.6,73.1
10.300,9.533,1.282,1.798,63.782,29.053,47.791,3.4,-71.7,73.8
10.310,9.671,1.193,1.718,61.707,26.917,48.096,3.2,-71.8,74.6
10.320,9.713,1.155,1.752,60.364,25.635,48.645,3.0,-71.9,75.3
10.330,9.636,1.081,1.739,59.387,24.719,48.462,2.7,-72.0,76.1
10.340,9.635,1.330,1.859,60.486,26.184,48.645,2.4,-72.1,76.9
10.350,9.719,1.547,1.825,60.974,27.649,49.683,2.2,-72.2,77.7
10.360,9.886,1.612,1.877,60.974,29.602,50.537,1.9,-72.2,78.5
10.370,9.838,1.701,2.232,59.509,30.457,51.025,1.7,-72.3,79.3
10.380,9.686,1.678,2.411,58.716,29.724,50.903,1.4,-72.3,80.1
10.390,9.829,1.782,2.449,57.800,29.663,49.561,1.1,-72.3,80.8
10.400,9.756,1.945,2.193,56.519,32.288,48.157,0.9,-72.3,81.5
10.410,9.664,2.042,2.013,53.162,35.156,46.021,0.8,-72.3,82.2
10.420,9.419,2.150,2.219,49.988,37.170,43.640,0.7,-72.2,82.7
10.430,9.290,2.139,2.404,47.974,37.048,41.565,0.6,-72.2,83.1
10.440,9.194,2.144,2.474,47.058,34.912,40.894,0.6,-72.1,83.5
10.450,9.218,2.027,2.338,46.631,33.447,41.565,0.6,-72.1,83.9
10.460,9.078,1.695,2.189,46.143,31.982,42.908,0.5,-72.1,84.4
10.470,8.974,1.360,2.146,45.532,30.212,43.701,0.3,-72.1,85.0
10.480,8.809,1.343,2.068,43.335,26.978,44.067,0.1,-72.1,85.6
10.490,8.821,1.143,1.998,41.687,24.963,45.410,-0.2,-72.2,86.2
10.500,9.060,0.657,3.185,39.063,23.804,46.265,-0.6,-72.3,86.9
10.510,9.309,0.316,4.558,36.377,17.822,45.776,-1.1,-72.3,87.7
10.520,10.078,-0.212,3.698,35.645,6.714,42.236,-1.6,-72.5,88.5
10.530,11.320,-0.508,2.068,35.522,10.986,35.339,-2.0,-72.7,89.1
10.540,12.019,-0.430,1.931,40.649,31.433,25.696,-2.1,-72.7,89.4
10.550,11.149,-0.238,2.285,52.795,49.316,19.104,-1.8,-72.6,89.5
10.560,9.925,1.051,2.497,61.768,52.734,19.287,-1.2,-72.4,89.4
10.570,9.555,2.065,2.826,62.500,45.898,25.146,-0.6,-72.3,89.3
10.580,9.533,2.062,3.242,62.317,39.001,32.532,-0.2,-72.2,89.4
10.590,9.260,1.721,3.173,61.218,34.851,38.025,0.1,-72.1,89.7
10.600,9.216,1.433,2.947,57.800,31.616,40.222,0.2,-72.0,90.1
10.610,9.339,1.051,3.015,52.734,28.137,39.734,0.1,-72.0,90.6
10.620,9.392,0.594,3.015,49.133,25.208,37.964,0.1,-72.0,91.0
10.630,9.446,-0.232,3.063,49.072,27.344,37.964,-0.1,-72.1,91.6
10.640,9.660,-0.751,2.937,52.246,30.457,38.757,-0.3,-72.1,92.2
10.650,9.830,-0.715,2.548,54.565,31.311,39.246,-0.6,-72.0,92.9
10.660,9.644,-0.204,2.112,55.298,30.396,39.978,-0.9,-72.0,93.7
10.670,9.606,0.170,1.906,56.335,31.128,41.626,-1.1,-72.1,94.4
10.680,9.371,0.406,1.855,59.692,34.058,42.847,-1.3,-72.1,95.1
10.690,9.176,0.371,1.910,63.599,35.950,43.152,-1.5,-72.0,95.8
10.700,8.520,0.290,2.037,67.078,35.522,43.030,-1.6,-72.0,96.4
10.710,7.993,0.254,2.007,68.115,32.227,42.542,-1.7,-72.0,97.1
10.720,7.623,-0.020,2.096,66.956,28.137,41.748,-1.8,-72.0,97.8
10.730,7.875,-0.247,2.267,65.735,25.818,40.710,-1.9,-72.0,98.5
10.740,8.279,-0.347,2.511,65.918,23.193,39.368,-2.0,-72.1,99.2
10.750,8.921,-0.525,2.763,67.749,20.447,38.391,-2.1,-72.1,99.8
10.760,9.546,-0.442,2.692,71.960,17.822,37.354,-2.2,-72.2,100.5
10.770,10.023,-0.412,2.232,76.172,16.113,37.415,-2.2,-72.4,101.1
10.780,10.097,-0.538,1.919,78.125,17.822,37.415,-2.1,-72.5,101.8
10.790,9.844,-0.655,1.847,78.857,21.667,38.513,-2.1,-72.6,102.4
10.800,9.241,-0.868,2.013,80.017,27.283,38.879,-2.2,-72.7,103.2
10.810,8.839,-0.980,2.151,81.909,30.701,39.490,-2.2,-72.7,104.0
10.820,8.224,-0.932,2.205,84.961,32.104,40.894,-2.3,-72.7,104.8
10.830,8.073,-0.952,2.242,87.891,29.907,43.030,-2.4,-72.7,105.6
10.840,8.127,-0.854,2.339,91.553,25.635,44.922,-2.6,-72.7,106.6
10.850,8.510,-0.685,2.308,94.604,20.264,45.776,-2.7,-72.7,107.6
10.860,9.121,-0.530,2.107,96.252,14.221,45.227,-2.8,-72.9,108.5
10.870,9.807,-0.339,1.927,96.619,10.254,43.640,-2.9,-73.1,109.5
10.880,10.171,-0.111,1.701,95.520,7.751,42.358,-2.8,-73.3,110.3
10.890,10.237,0.043,1.644,93.079,7.446,41.748,-2.8,-73.6,111.1
10.900,10.273,0.206,1.659,91.370,8.362,41.199,-2.8,-73.8,111.9
10.910,10.151,0.547,1.602,89.844,10.376,40.100,-2.7,-74.1,112.6
10.920,9.963,0.683,1.537,88.745,11.169,38.574,-2.5,-74.3,113.2
10.930,9.721,0.842,1.523,87.524,11.719,38.086,-2.3,-74.5,113.8
10.940,9.721,0.772,1.620,86.243,12.939,37.598,-2.1,-74.7,114.3
10.950,9.699,0.547,1.960,85.266,15.076,36.926,-1.9,-74.9,114.9
10.960,9.763,0.401,1.988,86.426,15.930,35.400,-1.6,-75.0,115.4
10.970,9.913,0.516,1.602,86.060,17.395,34.790,-1.4,-75.1,115.9
10.980,10.139,0.372,1.459,83.740,21.545,35.461,-1.2,-75.3,116.5
10.990,10.060,0.043,1.444,80.933,23.804,36.316,-1.1,-75.4,117.0
11.000,10.041,0.042,1.529,79.834,25.452,37.170,-1.0,-75.5,117.7
11.010,10.044,0.056,1.550,78.064,25.879,38.025,-1.1,-75.5,118.4
11.020,10.055,-0.090,1.454,77.026,26.611,39.063,-1.1,-75.6,119.2
11.030,10.025,0.059,1.432,75.623,26.978,39.368,-1.3,-75.6,119.9
11.040,9.974,0.097,1.173,76.538,26.062,39.001,-1.4,-75.7,120.7
11.050,10.099,0.184,1.043,76.965,25.269,37.964,-1.5,-75.8,121.4
11.060,9.678,0.485,0.899,77.942,24.902,36.133,-1.4,-75.9,122.1
11.070,9.496,0.581,0.871,77.454,24.963,35.339,-1.3,-76.0,122.6
11.080,9.497,0.673,0.899,75.623,25.085,35.156,-1.2,-76.1,123.2
11.090,9.491,0.865,1.008,73.059,26.184,34.302,-1.1,-76.2,123.7
11.100,9.364,0.934,0.967,70.068,26.489,33.936,-0.9,-76.2,124.1
11.110,9.443,1.221,0.844,67.322,26.428,33.142,-0.7,-76.3,124.5
11.120,9.313,1.271,0.637,63.477,26.245,33.020,-0.5,-76.4,124.8
11.130,9.125,1.433,0.436,60.791,26.855,33.691,-0.3,-76.5,125.1
11.140,9.213,1.551,0.269,57.556,28.320,34.302,-0.2,-76.6,125.5
11.150,9.221,1.527,0.220,54.565,29.907,34.241,-0.1,-76.6,125.8
11.160,9.216,1.525,0.296,52.124,31.128,33.997,0.0,-76.7,126.1
11.170,9.375,1.430,0.115,50.232,31.738,33.447,0.1,-76.7,126.5
11.180,9.413,1.175,0.028,47.791,32.898,32.715,0.2,-76.8,126.8
11.190,9.519,0.946,0.055,45.288,35.095,31.616,0.2,-76.8,127.1
11.200,9.537,0.718,0.175,44.128,36.743,29.968,0.2,-76.8,127.4
11.210,9.300,0.496,0.095,44.739,37.292,27.954,0.3,-76.8,127.6
11.220,9.057,0.265,0.144,46.143,37.109,26.245,0.4,-76.8,127.9
11.230,8.711,0.018,0.415,46.509,34.363,24.536,0.6,-76.9,128.1
11.240,8.644,-0.306,0.880,45.166,27.954,22.705,0.7,-76.9,128.2
11.250,8.947,-0.087,0.863,44.250,19.959,19.348,1.0,-77.0,128.3
11.260,9.203,0.321,0.365,44.434,11.475,15.686,1.4,-77.2,128.1
11.270,9.204,0.894,0.444,43.335,5.676,13.062,2.1,-77.5,127.7
11.280,9.292,1.167,1.638,39.856,-0.366,11.902,3.0,-77.8,127.1
11.290,9.636,1.138,4.157,35.584,-12.939,11.963,4.0,-78.2,126.4
11.300,10.868,2.091,5.187,33.203,-33.142,14.160,4.9,-78.6,125.6
11.310,12.802,4.102,1.946,29.175,-47.119,22.766,5.9,-79.3,124.8
11.320,13.312,4.215,-0.556,16.846,-36.133,37.476,6.7,-80.0,124.2
11.330,11.484,1.988,-1.164,5.981,-4.272,46.936,6.5,-80.6,124.4
11.340,9.618,0.151,0.666,-1.160,24.597,47.363,5.1,-80.8,125.6
11.350,9.307,-0.403,2.223,-1.282,36.682,44.861,3.3,-80.8,127.3
11.360,9.628,-0.679,3.498,3.784,41.504,45.105,1.5,-80.6,129.0
11.370,10.091,-1.453,4.710,15.686,39.490,46.143,-0.3,-80.4,130.8
11.380,10.231,-1.516,4.775,28.259,32.532,45.105,-2.1,-80.2,132.7
11.390,10.467,-0.408,4.130,31.616,27.161,44.922,-3.6,-80.1,134.5
11.400,10.928,0.467,3.189,26.428,24.475,45.471,-4.9,-80.0,135.9
11.410,11.509,0.779,2.050,21.606,29.175,42.114,-5.9,-79.9,137.0
11.420,11.779,0.973,1.714,14.343,36.194,36.499,-6.6,-79.9,137.8
11.430,11.852,1.047,1.466,6.104,37.659,31.921,-7.0,-79.8,138.1
11.440,11.636,0.733,1.348,3.418,40.405,28.687,-7.3,-79.7,138.3
11.450,10.771,0.502,1.737,5.005,45.044,27.039,-7.4,-79.6,138.4
11.460,10.345,0.230,2.505,10.864,46.814,24.292,-7.4,-79.4,138.4
11.470,10.191,0.527,2.641,18.250,44.800,18.982,-7.2,-79.2,138.2
11.480,10.104,1.332,2.029,20.447,43.640,15.015,-6.6,-79.0,137.7
11.490,10.105,1.458,1.703,18.433,47.485,15.808,-5.8,-78.9,136.9
11.500,9.423,1.539,1.797,17.029,51.697,17.944,-5.1,-78.7,136.3
11.510,9.180,1.013,1.813,13.733,51.575,21.362,-4.7,-78.4,135.9
11.520,9.303,0.790,1.742,11.719,49.561,22.278,-4.5,-78.2,135.7
11.530,8.933,0.734,1.422,10.742,49.744,21.057,-4.3,-78.0,135.5
11.540,8.654,0.451,1.475,8.911,50.720,19.287,-4.1,-77.8,135.3
11.550,8.330,-0.041,1.490,8.545,51.758,17.212,-3.9,-77.6,135.0
11.560,8.021,0.261,1.689,7.507,51.514,14.160,-3.7,-77.4,134.7
11.570,8.137,0.244,1.737,8.667,53.894,11.047,-3.2,-77.2,134.2
11.580,7.902,0.316,1.609,9.583,54.810,10.742,-2.7,-76.9,133.7
11.590,8.283,0.373,1.791,8.667,54.932,8.850,-2.2,-76.6,133.1
11.600,8.577,0.503,1.761,9.033,56.458,8.667,-1.7,-76.4,132.5
11.610,8.479,0.304,1.657,10.071,58.044,10.925,-1.2,-76.1,131.9
11.620,7.906,0.430,1.559,9.460,56.763,13.000,-0.8,-75.8,131.5
11.630,8.043,0.853,1.397,7.996,54.565,17.029,-0.6,-75.6,131.3
11.640,8.257,0.943,1.478,6.775,55.237,20.386,-0.5,-75.4,131.1
11.650,8.748,0.932,1.398,5.188,56.030,22.766,-0.5,-75.1,131.0
11.660,9.084,1.003,1.366,5.676,57.434,22.400,-0.5,-74.9,131.0
11.670,9.369,1.198,1.034,7.751,56.763,20.935,-0.4,-74.6,130.8
11.680,9.355,1.190,0.588,8.606,56.152,20.691,-0.3,-74.4,130.7
11.690,9.284,0.891,0.362,7.629,55.359,21.057,-0.2,-74.2,130.5
11.700,9.204,0.863,0.098,8.240,54.443,19.775,-0.1,-74.1,130.4
11.710,8.973,1.040,-0.216,8.240,53.284,17.456,0.1,-73.9,130.2
11.720,8.908,1.128,-0.278,6.775,50.964,15.808,0.3,-73.8,129.9
11.730,8.671,1.245,-0.386,5.066,45.898,14.709,0.6,-73.8,129.6
11.740,8.553,1.343,-0.327,3.052,36.377,13.855,0.9,-73.8,129.2
11.750,8.584,1.936,-0.329,1.831,26.855,13.123,1.2,-73.9,128.7
11.760,8.754,2.180,0.007,0.671,18.494,14.465,1.6,-74.1,128.2
11.770,9.045,2.260,0.660,-0.427,12.146,18.311,2.0,-74.3,127.7
11.780,9.247,1.793,1.063,-2.686,5.371,25.024,2.1,-74.6,127.5
11.790,9.884,0.735,1.219,-5.066,1.160,32.715,1.8,-74.9,127.6
11.800,10.201,-0.241,2.152,0.671,7.935,36.072,1.1,-75.2,128.1
11.810,9.456,-0.708,5.434,4.761,3.845,31.372,0.5,-75.4,128.7
11.820,10.264,-1.746,8.178,2.380,-25.391,15.564,0.2,-75.7,128.9
11.830,12.308,-2.228,8.105,11.719,-49.255,-5.615,0.6,-76.2,128.4
11.840,15.170,-3.138,7.047,36.865,-43.701,-24.719,2.0,-76.8,127.1
11.850,15.416,-2.876,7.277,62.988,-12.878,-35.339,4.2,-77.1,125.3
11.860,12.814,-0.434,6.315,82.397,16.052,-34.546,6.7,-77.1,123.3
11.870,10.254,1.396,5.130,78.796,28.137,-24.780,9.3,-76.9,121.3
11.880,8.159,1.725,5.148,60.425,29.968,-15.198,11.5,-76.7,119.6
11.890,7.483,1.803,5.442,44.922,28.748,-8.789,13.2,-76.4,118.3
11.900,7.516,1.847,5.118,31.860,24.414,-7.080,14.6,-76.2,117.0
11.910,8.191,1.286,5.004,23.071,17.090,-7.751,16.0,-76.1,115.8
11.920,9.245,0.626,4.831,22.583,4.517,-7.690,17.3,-76.1,114.5
11.930,11.305,-0.046,4.550,29.968,-7.690,-4.761,18.7,-76.2,113.2
11.940,13.083,-0.463,3.094,42.175,-14.893,-0.916,20.1,-76.5,112.0
11.950,14.108,-0.823,1.827,53.711,-13.733,3.784,21.5,-76.9,110.9
11.960,12.866,0.028,1.051,64.514,-0.427,8.240,22.8,-77.2,110.1
11.970,11.272,0.406,2.211,65.979,15.991,15.625,23.8,-77.4,109.6
11.980,10.026,0.645,3.158,65.186,18.433,21.484,24.3,-77.5,109.6
11.990,9.710,0.628,2.750,61.035,15.991,24.414,24.8,-77.6,109.6
12.000,9.595,0.535,2.478,54.565,18.433,25.208,25.1,-77.7,109.8
12.010,9.422,0.543,2.310,48.767,19.531,25.818,25.2,-77.8,109.9
12.020,9.173,0.704,2.193,45.288,22.888,26.672,25.3,-77.9,110.2
12.030,8.932,0.655,2.106,43.457,26.245,28.625,25.3,-77.9,110.5
12.040,8.780,0.567,2.134,44.495,26.489,29.602,25.2,-78.0,111.0
12.050,8.637,0.273,1.968,46.143,23.499,29.663,25.1,-78.0,111.4
12.060,8.604,0.103,1.548,45.715,21.545,29.724,25.0,-78.1,111.8
12.070,8.419,0.193,1.322,44.434,21.790,29.663,24.9,-78.3,112.2
12.080,8.756,-0.029,0.918,41.626,22.888,31.799,24.8,-78.4,112.7
12.090,8.471,-0.021,0.557,39.063,25.879,34.241,24.4,-78.5,113.3
12.100,8.580,-0.057,0.400,37.842,28.809,36.926,23.8,-78.6,114.1
12.110,8.346,0.259,0.316,39.673,30.701,36.804,23.2,-78.7,115.0
12.120,7.800,0.377,0.335,42.725,31.128,36.865,22.7,-78.8,115.8
12.130,7.504,0.473,0.488,45.410,28.748,35.095,22.3,-78.9,116.6
12.140,7.216,0.345,0.850,48.523,26.489,33.752,22.1,-79.0,117.2
12.150,7.564,0.619,0.894,49.255,21.240,33.691,21.9,-79.2,117.7
12.160,7.860,0.406,1.159,47.363,16.846,36.804,21.7,-79.3,118.3
12.170,7.904,0.571,0.956,45.105,15.137,38.208,21.4,-79.5,118.9
12.180,8.154,0.491,0.851,43.701,17.456,37.964,21.0,-79.7,119.6
12.190,8.310,0.171,0.863,46.265,22.766,37.842,20.6,-79.9,120.4
12.200,8.476,-0.283,0.809,50.598,28.931,37.720,20.0,-80.0,121.4
12.210,8.407,-0.514,0.922,52.979,33.997,37.903,19.2,-80.0,122.6
12.220,8.274,-0.534,0.952,53.711,36.377,36.377,18.3,-80.1,123.9
12.230,8.305,-0.028,0.755,52.063,34.729,34.485,17.6,-80.1,125.0
12.240,8.233,0.570,0.311,46.509,32.043,33.936,17.1,-80.1,125.9
12.250,8.329,1.227,-0.090,38.879,31.494,33.569,16.7,-80.2,126.6
12.260,8.415,1.521,-0.224,33.203,34.241,33.325,16.4,-80.2,127.1
12.270,8.511,1.670,-0.576,32.959,37.170,32.349,16.2,-80.2,127.5
12.280,8.481,1.688,-0.596,35.706,39.307,31.921,16.0,-80.2,127.9
12.290,8.601,1.390,-0.416,36.133,41.321,31.311,15.8,-80.2,128.3
12.300,8.866,0.888,-0.151,35.522,41.199,29.968,15.6,-80.2,128.8
12.310,9.369,0.108,0.146,34.363,38.513,28.015,15.4,-80.2,129.3
12.320,9.808,-0.591,0.656,34.424,32.654,25.330,15.1,-80.2,129.8
12.330,10.134,-0.756,0.773,35.034,25.146,21.545,15.0,-80.2,130.1
12.340,10.001,-0.649,1.122,31.494,18.311,18.066,15.1,-80.4,130.2
12.350,9.503,-0.561,1.869,24.414,10.193,13.306,15.5,-80.5,129.9
12.360,8.848,-0.094,2.683,15.747,0.732,5.737,16.4,-80.7,129.0
12.370,8.778,1.067,2.236,13.855,-6.775,-2.991,18.1,-80.9,127.3
12.380,8.894,2.517,2.097,10.925,-10.681,-9.766,20.8,-81.2,124.6
12.390,9.524,3.796,3.962,4.211,-7.935,-6.714,23.9,-81.3,121.4
12.400,10.825,3.753,7.337,5.249,-9.460,10.864,26.1,-81.4,119.1
12.410,11.980,3.033,7.637,3.052,-33.386,33.997,27.0,-81.6,118.0
12.420,12.642,2.630,4.257,-7.507,-60.974,57.190,27.4,-82.3,117.5
12.430,12.828,1.622,-0.495,-7.019,-63.232,77.881,27.1,-83.2,117.6
12.440,11.852,-0.827,-2.850,-9.216,-19.348,90.088,24.4,-84.2,120.1
12.450,10.482,-2.747,1.111,-4.333,32.776,85.449,17.7,-84.7,126.6
12.460,10.315,-4.487,6.330,16.602,41.199,70.190,9.8,-84.6,134.4
12.470,11.233,-2.976,5.570,35.278,14.282,55.847,3.7,-84.5,140.8
12.480,11.967,-0.124,2.619,40.222,-0.977,48.157,-0.2,-84.6,145.0
12.490,12.927,1.938,0.822,40.100,21.057,46.936,-2.6,-84.7,147.7
12.500,13.235,2.626,1.848,21.240,38.940,44.434,-4.1,-84.7,149.3
12.510,13.650,2.563,2.139,4.761,30.090,35.400,-4.8,-84.6,149.9
12.520,12.977,2.770,1.638,0.183,35.522,24.902,-4.3,-84.5,149.3
12.530,11.094,2.398,1.931,-1.892,41.504,15.564,-2.9,-84.4,147.8
12.540,10.645,2.095,2.211,-5.005,36.804,8.240,-1.0,-84.2,145.7
12.550,10.275,2.296,2.224,-4.517,33.081,4.028,1.3,-84.1,143.3
12.560,10.252,2.474,1.933,-2.686,32.043,6.287,3.5,-84.0,140.9
12.570,10.399,2.510,1.386,-4.395,37.903,10.925,5.2,-83.9,139.0
12.580,10.590,1.742,1.257,-8.484,46.265,14.038,6.4,-83.7,137.6
12.590,10.196,1.361,1.566,-11.658,50.903,15.686,6.9,-83.5,136.9
12.600,10.208,1.204,1.526,-15.015,50.659,14.832,7.2,-83.2,136.3
12.610,9.456,1.056,1.247,-16.602,49.866,13.550,7.5,-83.0,135.7
12.620,9.181,0.785,1.077,-17.639,49.744,10.681,7.9,-82.8,135.0
12.630,9.081,0.479,0.921,-18.066,51.880,6.653,8.5,-82.5,134.1
12.640,8.979,0.096,0.889,-18.494,55.908,3.784,9.1,-82.2,133.2
12.650,8.818,0.107,0.935,-19.897,59.204,3.479,9.6,-81.9,132.4
12.660,8.534,-0.101,1.156,-19.653,62.988,5.432,9.8,-81.6,131.8
12.670,7.973,-0.014,1.426,-18.188,60.608,8.240,9.8,-81.2,131.5
12.680,7.625,0.099,1.227,-16.907,55.542,10.010,9.8,-80.9,131.2
12.690,7.431,0.142,1.237,-16.174,52.246,11.475,9.7,-80.7,130.9
12.700,7.447,0.221,1.083,-15.747,50.415,12.817,9.6,-80.4,130.7
12.710,7.769,0.472,0.846,-15.015,49.561,13.672,9.5,-80.2,130.5
12.720,8.148,0.839,0.512,-13.733,50.293,13.428,9.5,-80.0,130.3
12.730,8.310,0.909,0.164,-13.062,52.063,12.695,9.6,-79.8,129.9
12.740,8.176,0.851,-0.056,-13.489,52.856,11.169,9.8,-79.6,129.5
12.750,8.025,1.107,-0.301,-15.991,50.293,8.789,10.1,-79.4,128.9
12.760,7.642,1.094,-0.305,-19.531,45.715,6.897,10.5,-79.3,128.1
12.770,7.328,1.254,-0.250,-22.400,39.490,5.920,11.0,-79.2,127.3
12.780,7.321,1.238,-0.143,-25.574,31.616,6.226,11.6,-79.2,126.3
12.790,7.317,1.167,0.113,-25.146,25.208,7.019,12.2,-79.3,125.3
12.800,7.435,1.134,0.201,-22.034,20.325,8.179,12.8,-79.3,124.4
12.810,7.884,1.371,0.548,-18.738,16.602,9.521,13.4,-79.5,123.4
12.820,8.104,1.566,0.843,-16.907,11.047,11.963,14.1,-79.6,122.4
12.830,8.463,1.059,1.396,-16.663,2.991,16.846,14.6,-79.8,121.6
12.840,8.793,-0.059,2.351,-16.052,-6.531,22.461,14.8,-80.1,121.1
12.850,9.761,-1.825,4.331,-16.663,-13.733,24.902,14.5,-80.5,121.1
12.860,11.391,-2.905,4.714,-17.151,-20.020,17.334,14.1,-80.8,121.2
12.870,13.332,-3.344,4.073,-19.287,-21.667,0.732,14.3,-81.2,120.6
12.880,15.314,-2.519,4.884,-14.954,-15.137,-22.522,15.8,-81.5,118.7
12.890,15.251,-0.521,5.609,5.371,5.127,-43.152,19.0,-81.5,115.4
12.900,13.310,1.284,4.040,24.475,36.865,-42.419,22.4,-81.2,112.0
12.910,10.715,2.955,2.830,20.264,51.331,-26.733,25.0,-80.7,109.5
12.920,8.836,2.952,2.697,5.249,46.021,-12.146,26.7,-80.3,107.7
12.930,8.194,2.311,2.315,-13.489,35.339,-2.991,27.9,-80.0,106.3
12.940,7.800,1.752,2.687,-34.302,24.109,-0.244,28.7,-79.8,105.1
12.950,8.347,1.308,3.300,-45.349,11.841,0.305,29.5,-79.8,103.7
12.960,9.412,0.363,3.312,-43.640,2.258,1.892,30.3,-79.8,102.3
12.970,11.033,-0.752,2.802,-32.104,0.305,4.150,31.0,-79.9,101.1
12.980,12.837,-1.278,2.288,-14.526,5.432,5.432,31.5,-80.1,100.2
12.990,13.659,-1.389,1.992,-0.732,14.404,7.263,31.9,-80.2,99.6
13.000,12.930,-1.178,2.557,2.991,23.132,9.399,32.0,-80.2,99.4
13.010,11.396,-0.464,2.905,2.991,27.771,12.695,31.7,-80.2,99.5
13.020,10.442,0.005,2.703,3.052,31.677,15.747,31.3,-80.2,99.8
13.030,9.753,0.180,2.632,2.258,36.316,16.479,30.9,-80.1,100.2
13.040,9.494,0.022,2.492,0.977,37.292,15.198,30.4,-79.9,100.5
13.050,9.416,-0.195,2.364,1.770,36.255,13.428,30.0,-79.8,100.8
13.060,9.146,-0.026,2.232,2.075,32.837,12.085,29.8,-79.7,100.9
13.070,8.821,-0.129,2.039,1.770,27.283,11.841,29.7,-79.7,100.8
13.080,9.047,-0.173,1.934,2.930,23.743,11.719,29.8,-79.7,100.6
13.090,8.984,0.002,1.827,3.662,21.545,11.169,30.1,-79.7,100.2
13.100,9.370,0.061,1.787,1.099,20.813,11.902,30.3,-79.7,99.8
13.110,9.255,0.396,1.632,-3.113,20.813,12.817,30.6,-79.7,99.5
13.120,8.970,0.618,1.430,-7.690,20.508,14.099,30.8,-79.8,99.0
13.130,8.872,0.698,1.192,-10.010,21.362,15.930,30.9,-79.8,98.6
13.140,8.797,0.693,1.022,-10.864,24.353,18.005,31.0,-79.9,98.4
13.150,8.507,0.731,1.065,-11.108,27.161,19.653,30.8,-79.9,98.2
13.160,8.523,0.678,1.219,-10.803,27.344,21.240,30.6,-79.9,98.3
13.170,8.759,0.358,1.250,-9.888,26.428,21.240,30.3,-79.9,98.3
13.180,9.121,0.104,1.244,-9.155,25.818,19.714,30.0,-80.0,98.4
13.190,9.573,-0.216,0.973,-9.399,25.452,17.273,29.8,-80.0,98.3
13.200,9.640,-0.473,0.917,-11.047,25.330,14.771,29.7,-80.1,98.2
13.210,9.580,-0.473,0.716,-13.916,24.414,13.000,29.7,-80.1,98.0
13.220,9.397,-0.247,0.675,-15.076,24.475,11.597,29.7,-80.2,97.6
13.230,9.223,0.124,0.566,-14.893,26.123,11.353,29.8,-80.2,97.2
13.240,8.993,0.389,0.473,-13.367,28.931,12.634,29.9,-80.2,96.8
13.250,8.865,0.764,0.351,-12.878,31.738,13.855,30.0,-80.2,96.5
13.260,8.543,0.934,0.430,-12.329,34.485,14.709,29.9,-80.1,96.3
13.270,8.550,0.923,0.552,-12.146,36.011,15.381,29.9,-80.1,96.1
13.280,8.490,0.728,0.715,-10.559,35.950,16.052,29.7,-80.0,96.0
13.290,8.517,0.529,0.649,-10.010,34.973,16.541,29.5,-80.0,96.0
13.300,8.614,0.314,0.583,-12.573,34.302,17.029,29.3,-79.9,96.0
13.310,8.743,0.043,0.530,-16.602,34.485,17.639,28.9,-79.9,96.0
13.320,9.030,-0.212,0.542,-18.738,35.522,17.822,28.5,-79.9,96.2
13.330,9.204,-0.210,0.463,-19.226,35.950,16.907,28.0,-79.9,96.4
13.340,9.188,-0.222,0.695,-18.799,34.851,15.381,27.6,-79.8,96.5
13.350,9.260,-0.268,1.162,-18.127,31.494,13.000,27.3,-79.8,96.4
13.360,9.303,-0.326,1.585,-16.174,25.208,10.132,27.3,-79.8,96.1
13.370,9.433,-0.410,1.433,-12.939,17.273,7.446,27.6,-79.9,95.5
13.380,9.394,-0.408,1.617,-12.085,11.719,4.089,28.2,-79.9,94.6
13.390,9.306,0.042,1.873,-11.108,8.484,0.793,29.1,-80.0,93.5
13.400,9.190,0.563,1.964,-9.094,5.615,-0.610,30.3,-80.1,92.0
13.410,9.298,0.868,2.416,-8.789,3.052,0.305,31.7,-80.2,90.4
13.420,9.599,1.283,2.957,-10.559,1.404,4.395,33.0,-80.3,88.8
13.430,9.989,1.019,3.361,-14.771,0.793,13.611,33.9,-80.4,87.6
13.440,10.768,0.506,3.416,-20.874,0.488,26.917,34.0,-80.6,87.2
13.450,11.420,-0.284,3.143,-28.198,-2.014,39.978,33.3,-80.9,87.5
13.460,10.980,-0.926,2.243,-29.419,-3.296,47.668,32.0,-81.3,88.4
13.470,10.020,-0.970,1.295,-26.428,0.244,49.927,30.3,-81.7,89.6
13.480,9.397,-0.533,1.295,-27.832,8.301,50.598,28.4,-82.1,91.2
13.490,8.881,0.429,2.055,-28.931,23.315,52.979,25.8,-82.3,93.3
13.500,8.808,0.913,3.649,-25.085,39.307,55.908,22.7,-82.3,96.1
13.510,8.887,1.622,4.510,-16.174,43.274,53.345,19.4,-82.2,99.0
13.520,8.990,2.483,3.286,-11.108,37.231,46.326,17.1,-82.0,101.1
13.530,9.711,3.748,1.873,-19.653,30.823,39.856,15.9,-82.0,102.1
13.540,10.643,4.332,1.811,-37.964,25.208,36.377,15.3,-82.0,102.2
13.550,11.614,3.734,0.893,-56.396,17.700,33.203,15.0,-82.0,101.9
13.560,12.212,2.156,0.936,-64.758,21.729,26.306,14.8,-82.1,101.4
13.570,11.586,1.050,1.457,-63.049,23.743,17.456,14.6,-82.2,100.8
13.580,10.494,0.615,1.946,-56.213,24.719,10.315,14.7,-82.2,100.0
13.590,10.591,0.439,1.596,-50.842,25.024,6.775,15.0,-82.2,99.0
13.600,10.247,0.545,1.565,-48.828,32.227,6.409,15.3,-82.1,98.1
13.610,10.302,0.455,1.742,-52.673,37.354,7.874,15.4,-82.0,97.3
13.620,11.001,0.962,1.634,-56.946,38.147,9.094,15.3,-81.9,96.7
13.630,11.141,0.921,1.470,-58.716,40.344,10.864,15.1,-81.7,96.1
13.640,11.428,0.822,1.524,-58.411,44.983,11.719,14.8,-81.5,95.7
13.650,10.598,0.616,1.644,-58.105,48.035,11.902,14.4,-81.3,95.4
13.660,10.220,0.542,1.740,-59.631,49.988,13.184,13.8,-81.1,95.3
13.670,10.045,0.689,1.685,-61.646,50.354,14.526,13.2,-80.9,95.2
13.680,10.184,0.582,1.562,-62.439,52.002,14.526,12.5,-80.6,95.1
13.690,10.029,0.348,1.837,-61.462,53.406,12.451,11.9,-80.4,95.0
13.700,9.834,0.291,1.992,-59.021,53.101,10.315,11.3,-80.1,94.8
13.710,9.544,0.372,1.667,-57.434,52.490,9.094,10.9,-79.8,94.5
13.720,9.364,0.543,1.465,-59.631,52.368,9.216,10.6,-79.6,94.1
13.730,9.412,0.827,1.518,-63.477,53.406,8.972,10.2,-79.3,93.7
13.740,9.355,1.166,1.672,-67.322,52.856,7.385,10.0,-79.1,93.2
13.750,9.269,1.387,1.690,-67.566,52.429,5.737,9.9,-78.8,92.4
13.760,8.845,1.402,1.130,-67.871,49.622,4.578,9.9,-78.5,91.6
13.770,8.347,1.213,0.378,-70.923,46.875,3.540,9.9,-78.4,90.8
13.780,7.892,1.073,0.117,-74.402,46.082,1.282,10.0,-78.2,89.8
13.790,7.515,1.262,-0.259,-76.111,45.227,-2.441,10.2,-78.1,88.7
13.800,7.293,1.570,-0.669,-79.956,44.006,-4.700,10.5,-77.9,87.4
13.810,6.866,1.934,-0.850,-84.717,43.579,-5.127,11.0,-77.8,86.0
13.820,6.372,2.226,0.705,-89.050,44.006,-5.188,11.4,-77.7,84.6
13.830,5.950,3.087,5.839,-91.248,40.039,-7.751,11.8,-77.5,83.1
13.840,6.296,2.386,6.154,-84.229,22.766,-12.817,12.5,-77.2,81.4
13.850,8.326,-0.521,4.832,-78.125,17.822,-16.907,13.3,-77.0,79.6
13.860,12.243,-3.964,4.696,-76.843,17.273,-24.170,13.8,-76.9,78.2
13.870,15.213,-6.335,1.751,-66.284,14.465,-33.203,14.1,-76.9,76.9
13.880,13.773,-3.738,-1.399,-57.861,23.865,-34.790,14.6,-77.1,75.6
13.890,12.273,-0.125,1.272,-58.105,40.527,-22.644,15.3,-77.1,74.2
13.900,12.371,0.186,3.914,-47.424,38.452,-11.353,15.8,-76.9,73.0
13.910,12.857,0.667,3.177,-40.649,22.949,-6.714,16.2,-76.8,71.9
13.920,12.540,1.475,1.970,-46.448,20.081,-2.991,16.7,-76.8,70.8
13.930,11.505,1.642,1.690,-58.899,31.128,1.404,17.1,-76.8,69.8
13.940,10.572,1.197,2.441,-69.885,48.950,6.348,16.8,-76.6,69.2
13.950,9.746,1.149,3.451,-73.792,60.608,10.315,16.1,-76.3,69.1
13.960,9.665,0.936,2.978,-74.829,54.871,11.108,15.3,-75.9,69.0
13.970,9.795,0.211,1.964,-76.721,51.025,10.315,14.5,-75.6,68.9
13.980,9.394,0.136,1.566,-80.078,53.711,7.324,13.7,-75.4,68.8
13.990,8.951,0.103,1.410,-84.045,53.711,4.211,13.0,-75.2,68.5
14.000,8.419,0.202,1.217,-87.891,50.964,0.793,12.5,-74.9,68.0
14.010,8.283,0.207,1.172,-89.233,49.805,-2.991,12.1,-74.7,67.4
14.020,8.228,0.135,1.296,-88.623,49.927,-7.996,11.8,-74.5,66.6
14.030,8.116,0.044,1.576,-88.745,48.401,-13.428,11.7,-74.3,65.6
14.040,7.971,0.121,1.857,-90.576,44.922,-18.921,11.8,-74.1,64.4
14.050,7.861,0.201,1.982,-92.896,39.490,-23.071,12.1,-73.9,63.1
14.060,8.006,0.002,2.040,-93.750,35.034,-24.963,12.4,-73.7,61.6
14.070,8.337,-0.161,1.792,-93.445,31.311,-25.574,12.7,-73.6,60.1
14.080,8.919,-0.387,1.535,-93.994,29.907,-25.024,13.0,-73.5,58.7
14.090,9.405,-0.625,1.187,-94.543,31.250,-23.010,13.3,-73.4,57.3
14.100,9.770,-0.860,1.076,-95.032,33.691,-19.470,13.3,-73.4,56.1
14.110,9.709,-0.982,1.196,-92.957,36.133,-15.686,13.2,-73.3,55.1
14.120,9.518,-1.345,1.542,-88.928,37.964,-12.268,13.0,-73.2,54.3
14.130,9.202,-1.579,1.853,-84.534,37.292,-11.047,12.6,-73.1,53.5
14.140,8.802,-1.538,2.194,-80.261,35.034,-11.658,12.3,-73.0,52.8
14.150,8.522,-1.429,2.402,-77.087,32.532,-13.123,12.1,-73.0,52.1
14.160,8.432,-1.263,2.635,-75.012,29.419,-14.832,12.1,-72.9,51.2
14.170,8.614,-1.013,2.669,-74.646,26.184,-15.991,12.1,-72.8,50.3
14.180,9.042,-0.728,2.674,-74.524,23.315,-16.602,12.1,-72.8,49.2
14.190,9.476,-0.429,2.399,-74.036,20.935,-16.418,12.3,-72.8,48.2
14.200,9.781,-0.228,2.377,-73.975,20.447,-15.564,12.5,-72.9,47.0
14.210,9.908,-0.009,2.493,-73.730,21.606,-14.832,12.7,-72.9,45.9
14.220,9.944,0.211,2.615,-73.303,22.705,-14.648,12.9,-72.9,44.8
14.230,9.990,0.436,2.708,-73.303,24.719,-14.832,13.1,-72.9,43.7
14.240,9.886,0.615,2.819,-73.730,27.466,-15.442,13.3,-72.8,42.5
14.250,9.772,0.539,2.909,-74.463,30.457,-15.991,13.5,-72.7,41.4
14.260,9.547,0.545,3.207,-75.439,32.593,-16.296,13.7,-72.6,40.2
14.270,9.410,0.599,3.323,-77.332,31.799,-16.418,13.9,-72.5,39.1
14.280,9.455,0.766,3.081,-80.017,29.358,-15.503,14.0,-72.4,38.0
14.290,9.520,0.746,2.751,-83.740,29.053,-13.245,14.1,-72.3,36.9
14.300,9.502,0.666,2.413,-87.463,30.029,-9.888,14.0,-72.2,36.0
14.310,9.242,0.430,2.027,-90.637,30.701,-5.737,13.8,-72.1,35.1
14.320,8.871,0.061,1.713,-93.079,30.823,-1.770,13.4,-72.1,34.5
14.330,8.510,-0.540,1.424,-94.177,30.151,1.587,12.8,-72.1,33.9
14.340,8.298,-0.971,1.412,-92.896,28.748,3.845,12.1,-72.1,33.5
14.350,8.277,-1.316,1.678,-90.515,26.367,4.578,11.3,-72.1,33.2
14.360,8.614,-1.704,2.220,-87.830,22.583,3.540,10.6,-72.2,32.9
14.370,9.066,-2.057,2.329,-82.459,17.151,1.221,9.9,-72.3,32.6
14.380,9.541,-2.186,2.314,-76.599,12.878,-1.587,9.3,-72.5,32.2
14.390,9.843,-2.150,2.145,-70.923,10.620,-3.723,8.9,-72.6,31.7
14.400,9.805,-1.923,2.018,-65.002,12.207,-5.066,8.6,-72.8,31.1
14.410,9.753,-1.746,2.171,-60.059,16.724,-4.883,8.4,-73.0,30.5
14.420,9.527,-1.380,2.406,-54.626,21.057,-3.845,8.2,-73.1,29.9
14.430,9.321,-1.061,2.736,-49.072,24.841,-0.732,8.1,-73.1,29.4
14.440,9.114,-0.501,3.005,-45.044,26.917,4.211,7.8,-73.1,29.0
14.450,9.227,-0.171,2.922,-41.565,26.367,10.193,7.5,-73.1,28.8
14.460,9.216,-0.179,2.504,-36.499,25.208,15.991,7.1,-73.1,28.6
14.470,9.120,-0.038,1.952,-34.241,27.527,20.996,6.6,-73.2,28.7
14.480,9.160,0.057,2.223,-34.668,31.860,24.902,5.9,-73.2,28.9
14.490,9.257,0.385,2.625,-38.574,32.104,27.466,5.2,-73.2,29.1
14.500,9.391,0.468,2.635,-41.382,33.508,30.151,4.3,-73.1,29.5
14.510,9.461,0.163,2.539,-38.025,36.316,28.198,3.5,-73.1,29.8
14.520,9.255,0.288,2.631,-34.851,35.889,22.827,2.9,-73.0,29.9
14.530,9.374,0.777,2.705,-30.945,30.823,18.433,2.5,-73.0,29.9
14.540,10.086,1.277,2.481,-30.212,21.851,16.357,2.3,-73.0,29.7
14.550,10.415,1.705,1.693,-31.494,19.897,16.174,2.2,-73.1,29.3
14.560,10.439,2.034,1.542,-34.546,27.954,16.052,2.1,-73.2,28.9
14.570,10.365,2.382,2.426,-38.147,35.889,14.893,2.0,-73.2,28.5
14.580,10.220,2.540,2.734,-42.480,36.438,12.146,2.1,-73.2,27.9
14.590,10.013,2.382,2.200,-48.950,36.133,9.155,2.2,-73.1,27.2
14.600,9.799,2.151,2.122,-56.580,39.001,5.981,2.2,-73.0,26.5
14.610,9.671,1.891,2.226,-63.782,39.490,2.502,2.3,-72.9,25.6
14.620,9.648,1.714,2.019,-67.810,39.185,-1.526,2.4,-72.8,24.7
14.630,9.721,1.519,1.767,-67.932,42.419,-4.639,2.6,-72.7,23.7
14.640,9.576,1.287,1.811,-69.763,45.410,-6.714,2.8,-72.6,22.6
14.650,9.468,1.174,2.167,-72.632,45.410,-7.813,3.0,-72.5,21.6
14.660,9.328,0.983,2.425,-73.242,42.847,-7.874,3.1,-72.3,20.6
14.670,9.388,0.631,2.418,-72.815,40.344,-7.080,3.2,-72.2,19.6
14.680,9.387,0.345,2.401,-72.632,40.161,-5.920,3.2,-72.1,18.7
14.690,9.310,0.074,2.636,-74.402,41.504,-4.761,3.0,-72.0,17.9
14.700,8.991,0.008,2.863,-76.172,44.006,-3.662,2.9,-71.8,17.2
14.710,8.847,-0.028,2.765,-74.036,45.715,-2.686,2.6,-71.7,16.5
14.720,9.048,-0.054,2.836,-70.496,45.471,-2.563,2.4,-71.5,15.8
14.730,9.697,-0.534,3.342,-65.857,46.509,-2.625,2.2,-71.3,15.2
14.740,10.396,-0.906,3.629,-60.242,45.776,-2.258,2.0,-71.1,14.6
14.750,10.665,-1.132,3.396,-55.725,41.992,-0.916,1.7,-71.0,14.1
14.760,10.399,-1.242,3.016,-52.368,41.687,0.549,1.5,-70.8,13.7
14.770,9.897,-1.127,3.139,-50.720,44.128,1.587,1.2,-70.7,13.3
14.780,9.743,-0.983,3.286,-49.988,46.082,2.502,0.9,-70.6,12.9
14.790,9.599,-0.952,3.074,-49.316,48.645,2.991,0.6,-70.4,12.5
14.800,9.078,-0.667,3.157,-48.889,55.542,3.052,0.3,-70.1,12.2
14.810,8.820,-0.423,2.849,-46.021,55.603,1.465,0.1,-69.8,11.7
14.820,8.464,-0.113,2.475,-44.922,56.335,-1.343,0.0,-69.6,11.2
14.830,8.263,0.056,2.679,-44.312,54.993,-3.723,0.1,-69.3,10.5
14.840,8.219,0.485,2.982,-44.617,50.415,-5.066,0.2,-69.1,9.8
14.850,8.353,0.749,2.977,-46.387,44.250,-4.456,0.3,-69.0,9.0
14.860,8.724,0.505,2.999,-48.889,39.246,-3.052,0.4,-68.8,8.3
14.870,8.833,0.198,2.723,-51.086,38.635,-1.831,0.3,-68.8,7.7
14.880,8.978,-0.151,2.618,-52.856,41.016,-1.526,0.2,-68.7,7.1
14.890,8.775,-0.287,2.291,-55.054,41.382,-3.296,0.1,-68.6,6.5
14.900,8.513,-0.360,2.134,-56.030,41.992,-5.432,0.0,-68.5,5.8
14.910,8.473,-0.543,2.854,-55.664,42.419,-7.629,0.0,-68.4,5.1
14.920,8.682,-0.631,3.367,-52.185,39.429,-8.911,-0.1,-68.3,4.4
14.930,9.252,-0.704,3.614,-49.377,35.828,-8.423,-0.1,-68.2,3.7
14.940,9.887,-1.042,3.687,-48.706,33.020,-5.737,-0.1,-68.2,3.1
14.950,10.290,-1.362,3.404,-47.180,35.095,-2.258,-0.3,-68.1,2.6
14.960,10.132,-1.332,3.154,-47.607,41.809,0.793,-0.5,-68.0,2.2
14.970,9.802,-1.244,3.353,-50.049,47.607,2.319,-0.9,-67.9,1.9
14.980,9.409,-1.006,3.628,-49.316,49.438,2.808,-1.2,-67.7,1.5
14.990,9.125,-0.980,3.672,-46.387,46.814,1.709,-1.5,-67.5,1.2
15.000,8.974,-0.974,3.556,-42.419,43.213,0.916,-1.7,-67.4,0.8
15.010,8.980,-0.931,3.240,-40.039,40.344,1.099,-1.9,-67.3,0.3
15.020,8.968,-0.841,3.143,-39.795,40.039,2.441,-2.0,-67.2,0.0
15.030,8.979,-0.850,3.049,-39.795,41.382,4.150,-2.3,-67.1,-0.4
15.040,8.711,-0.800,3.087,-40.344,43.030,5.310,-2.5,-67.0,-0.7
15.050,8.473,-0.771,3.079,-40.649,43.701,5.432,-2.8,-66.8,-1.0
15.060,8.353,-0.903,3.188,-41.382,41.748,4.028,-3.0,-66.7,-1.4
15.070,8.276,-1.129,2.993,-41.687,39.612,1.465,-3.2,-66.6,-1.8
15.080,8.161,-1.125,2.946,-41.443,38.940,-1.404,-3.4,-66.6,-2.2
15.090,8.072,-1.079,3.008,-41.565,38.086,-3.296,-3.5,-66.5,-2.7
15.100,7.953,-0.932,3.136,-41.138,35.584,-4.822,-3.6,-66.4,-3.2
15.110,8.194,-0.871,3.180,-39.429,32.288,-5.676,-3.6,-66.4,-3.8
15.120,8.415,-0.919,3.137,-37.842,28.564,-6.409,-3.6,-66.4,-4.4
15.130,8.651,-1.143,2.862,-37.170,26.978,-7.141,-3.6,-66.5,-5.0
15.140,8.786,-1.277,2.898,-36.011,27.710,-7.385,-3.5,-66.6,-5.5
15.150,8.920,-1.544,2.915,-34.790,27.893,-7.141,-3.5,-66.6,-6.1
15.160,9.075,-1.730,3.086,-33.020,28.992,-5.798,-3.5,-66.7,-6.6
15.170,9.091,-1.763,3.105,-30.518,30.090,-3.784,-3.6,-66.7,-7.1
15.180,9.023,-1.587,3.269,-29.846,29.602,-2.197,-3.7,-66.7,-7.5
15.190,8.912,-1.354,3.318,-28.748,28.625,-1.160,-3.8,-66.7,-7.9
15.200,8.806,-1.139,3.305,-28.381,27.222,-0.732,-3.8,-66.8,-8.3
15.210,8.882,-1.014,3.294,-27.771,27.039,-0.854,-3.8,-66.8,-8.7
15.220,9.018,-0.981,3.391,-26.978,28.076,-1.160,-3.8,-66.9,-9.2
15.230,9.103,-1.040,3.464,-25.818,28.931,-2.014,-3.8,-66.9,-9.7
15.240,9.202,-1.332,3.483,-24.841,28.625,-2.991,-3.8,-66.9,-10.1
15.250,9.178,-1.540,3.358,-24.475,27.649,-3.845,-3.7,-67.0,-10.6
15.260,9.173,-1.530,3.267,-23.743,28.381,-4.272,-3.7,-67.0,-11.1
15.270,9.348,-1.569,3.249,-22.400,29.724,-3.967,-3.6,-67.0,-11.6
15.280,9.367,-1.556,3.190,-20.447,30.212,-3.540,-3.6,-67.0,-12.0
15.290,9.387,-1.566,3.075,-19.531,31.799,-2.319,-3.5,-67.1,-12.5
15.300,9.312,-1.591,3.198,-17.212,34.546,-0.610,-3.5,-67.0,-12.9
15.310,9.289,-1.578,3.169,-14.282,36.987,1.526,-3.5,-67.0,-13.2
15.320,9.162,-1.601,3.234,-12.085,40.039,3.357,-3.5,-66.9,-13.5
15.330,9.009,-1.542,3.277,-9.705,42.725,4.822,-3.5,-66.8,-13.8
15.340,8.875,-1.499,3.410,-7.874,44.189,5.798,-3.5,-66.7,-14.1
15.350,8.735,-1.447,3.479,-5.676,45.471,5.737,-3.5,-66.5,-14.3
15.360,8.652,-1.310,3.465,-3.540,46.021,4.700,-3.4,-66.4,-14.6
15.370,8.534,-1.172,3.225,-2.869,45.349,3.052,-3.3,-66.2,-14.9
15.380,8.461,-1.119,3.115,-3.723,45.715,1.343,-3.1,-66.1,-15.3
15.390,8.207,-1.000,3.020,-3.662,46.936,-0.122,-2.9,-65.9,-15.7
15.400,8.057,-0.945,2.949,-3.906,48.828,-0.793,-2.7,-65.8,-16.1
15.410,7.909,-0.924,2.896,-3.906,52.429,-0.244,-2.5,-65.6,-16.6
15.420,7.723,-0.800,3.173,-4.822,56.335,0.610,-2.3,-65.3,-17.0
15.430,7.649,-0.534,3.544,-5.249,58.105,1.282,-2.1,-65.1,-17.4
15.440,7.884,-0.447,4.029,-3.784,57.434,1.099,-1.9,-64.8,-17.9
15.450,8.170,-0.515,4.277,-2.075,55.786,-0.183,-1.7,-64.5,-18.3
15.460,8.463,-0.533,4.604,-2.686,54.749,-1.099,-1.4,-64.2,-18.8
15.470,8.628,-0.700,4.939,-4.822,55.481,-1.221,-1.2,-63.9,-19.2
15.480,8.490,-0.554,4.798,-4.639,55.908,0.427,-1.0,-63.6,-19.6
15.490,8.027,-0.185,4.470,-5.249,57.861,3.357,-0.9,-63.3,-20.0
15.500,7.716,0.097,4.840,-7.690,59.509,6.836,-0.8,-63.0,-20.3
15.510,7.249,1.150,4.664,-6.287,56.030,8.911,-0.7,-62.7,-20.6
15.520,6.928,2.080,4.095,-6.470,48.096,9.705,-0.6,-62.4,-21.0
15.530,7.061,2.277,3.826,-10.620,39.246,9.094,-0.4,-62.3,-21.4
15.540,7.930,1.448,4.283,-15.747,33.264,8.118,-0.2,-62.2,-21.8
15.550,9.038,-0.169,4.643,-18.677,26.978,6.714,-0.2,-62.2,-22.2
15.560,9.750,-2.162,4.656,-15.625,24.780,5.676,-0.3,-62.2,-22.4
15.570,9.607,-2.796,4.096,-11.230,25.879,3.723,-0.5,-62.3,-22.6
15.580,9.306,-2.447,4.004,-7.935,27.466,2.991,-0.6,-62.3,-22.7
15.590,9.089,-1.249,3.931,-3.174,28.259,4.028,-0.7,-62.4,-22.9
15.600,8.905,-0.433,3.468,1.892,33.752,6.348,-0.7,-62.4,-23.1
15.610,8.647,0.691,3.176,4.211,48.279,9.888,-0.6,-62.3,-23.3
15.620,8.194,1.494,3.643,0.122,60.608,13.367,-0.4,-62.0,-23.6
15.630,7.712,1.679,4.495,-4.456,65.125,17.029,-0.4,-61.7,-23.8
15.640,7.581,1.138,5.121,-5.188,58.838,19.531,-0.4,-61.3,-23.9
15.650,7.761,0.494,5.187,-6.409,44.128,19.714,-0.5,-61.1,-24.0
15.660,8.240,-0.027,4.625,-5.737,30.334,17.761,-0.6,-61.0,-24.1
15.670,8.784,-0.254,3.872,-5.737,24.536,14.771,-0.7,-61.1,-24.2
15.680,9.008,-0.299,3.599,-7.568,28.320,11.353,-0.8,-61.1,-24.3
15.690,8.749,-0.315,3.945,-8.545,37.048,9.094,-0.9,-61.1,-24.5
15.700,8.371,-0.272,4.654,-7.263,42.908,7.629,-0.9,-61.0,-24.7
15.710,8.076,-0.058,5.282,-4.028,42.297,7.080,-0.9,-60.8,-25.0
15.720,8.060,0.073,5.428,-1.099,35.950,7.263,-0.8,-60.7,-25.2
15.730,8.332,-0.042,5.303,1.404,29.724,8.667,-0.7,-60.7,-25.5
15.740,8.820,-0.233,5.135,4.272,27.405,11.230,-0.6,-60.6,-25.7
15.750,9.101,-0.308,4.686,2.686,28.137,14.832,-0.6,-60.7,-25.8
15.760,9.588,-0.391,4.575,-1.953,30.823,17.822,-0.7,-60.7,-25.8
15.770,9.642,0.031,4.342,-3.540,36.133,18.677,-0.9,-60.6,-25.8
15.780,9.324,0.219,4.196,-5.798,42.114,18.372,-1.0,-60.5,-25.9
15.790,8.799,0.285,4.252,-6.958,47.607,17.273,-1.2,-60.4,-26.0
15.800,8.274,0.604,4.312,-6.470,51.331,15.198,-1.2,-60.2,-26.1
15.810,7.844,0.839,4.701,-6.470,52.979,12.634,-1.3,-60.0,-26.3
15.820,7.627,1.228,5.071,-5.798,51.819,10.010,-1.2,-59.7,-26.6
15.830,7.542,1.247,5.245,-7.874,48.462,7.874,-1.1,-59.5,-26.9
15.840,7.758,0.737,5.394,-10.559,43.396,5.981,-1.0,-59.3,-27.3
15.850,8.046,-0.038,5.217,-12.573,38.391,5.371,-0.9,-59.2,-27.6
15.860,8.111,-0.669,5.281,-14.160,35.217,5.798,-0.9,-59.1,-27.9
15.870,8.127,-1.228,5.158,-11.841,31.555,7.568,-1.1,-59.0,-28.1
15.880,8.243,-1.395,5.063,-8.179,28.687,10.681,-1.2,-59.0,-28.2
15.890,8.153,-1.188,4.597,-4.578,27.588,13.977,-1.4,-59.0,-28.2
15.900,8.159,-0.718,4.351,-2.441,30.457,17.151,-1.6,-59.0,-28.2
15.910,8.155,-0.201,4.259,-1.465,34.485,20.142,-1.8,-59.0,-28.2
15.920,8.234,0.294,4.204,0.488,36.499,20.996,-1.9,-58.9,-28.2
15.930,8.216,0.316,4.009,0.488,39.490,20.630,-2.0,-58.9,-28.2
15.940,8.015,0.085,4.149,-1.831,45.166,19.104,-2.1,-58.7,-28.2
15.950,7.760,-0.094,4.747,-3.845,50.537,17.212,-2.2,-58.5,-28.3
15.960,7.621,-0.166,5.327,-3.174,52.124,15.381,-2.3,-58.3,-28.4
15.970,7.474,-0.135,5.636,-1.892,49.316,13.855,-2.3,-58.1,-28.5
15.980,7.566,-0.129,5.474,-1.221,43.762,13.123,-2.3,-57.9,-28.7
15.990,7.645,-0.216,5.269,-2.197,40.527,12.878,-2.4,-57.7,-28.8
16.000,7.650,-0.228,5.006,-3.052,40.466,13.123,-2.4,-57.6,-29.0
16.010,7.653,-0.400,4.721,-3.906,41.077,13.550,-2.5,-57.5,-29.1
16.020,7.682,-0.581,4.697,-5.005,41.870,13.977,-2.6,-57.3,-29.2
16.030,7.625,-0.788,4.847,-7.813,40.466,13.306,-2.7,-57.2,-29.3
16.040,7.341,-0.718,4.954,-9.888,35.950,12.451,-2.8,-57.1,-29.4
16.050,7.250,-0.667,5.033,-9.888,32.227,13.245,-3.0,-57.1,-29.5
16.060,7.169,-0.463,4.969,-9.216,27.893,14.893,-3.2,-57.0,-29.6
16.070,7.073,-0.308,4.852,-6.897,24.780,17.822,-3.4,-57.1,-29.6
16.080,7.126,-0.294,4.784,-5.859,22.888,21.057,-3.6,-57.1,-29.6
16.090,7.334,-0.724,4.747,-5.981,21.118,23.315,-3.8,-57.2,-29.5
16.100,7.720,-0.980,4.814,-4.150,21.423,23.987,-4.1,-57.2,-29.4
16.110,7.949,-1.269,4.825,-2.319,22.461,22.949,-4.4,-57.3,-29.3
16.120,8.115,-1.485,5.044,-1.587,22.217,20.203,-4.6,-57.4,-29.2
16.130,8.338,-1.447,5.231,-1.587,18.066,16.418,-4.8,-57.5,-29.2
16.140,8.484,-1.195,4.943,1.526,13.428,13.672,-5.0,-57.6,-29.2
16.150,8.428,-0.912,4.543,3.906,14.282,12.756,-5.0,-57.8,-29.2
16.160,8.184,-0.598,4.271,5.188,18.494,13.367,-5.1,-57.9,-29.3
16.170,8.101,-0.585,4.452,4.578,23.865,15.320,-5.1,-58.0,-29.4
16.180,7.856,-0.572,4.795,2.625,25.024,16.907,-5.2,-58.1,-29.4
16.190,7.704,-0.707,5.150,1.282,23.926,18.127,-5.3,-58.1,-29.5
16.200,7.769,-0.749,5.278,2.197,18.860,17.822,-5.4,-58.2,-29.5
16.210,7.872,-0.907,5.322,4.150,13.123,16.296,-5.5,-58.3,-29.5
16.220,8.083,-0.803,5.008,6.531,6.409,14.160,-5.5,-58.5,-29.5
16.230,8.280,-0.997,4.593,7.507,1.770,12.451,-5.5,-58.7,-29.6
16.240,8.627,-1.036,4.289,6.775,1.648,11.292,-5.6,-59.0,-29.6
16.250,8.663,-1.012,4.045,7.263,6.348,11.353,-5.6,-59.3,-29.7
16.260,8.605,-0.795,4.169,7.996,13.184,12.146,-5.6,-59.5,-29.8
16.270,8.519,-0.746,4.418,8.484,17.822,13.794,-5.5,-59.7,-29.9
16.280,8.378,-0.669,4.695,9.155,19.287,15.564,-5.5,-59.8,-29.9
16.290,8.326,-0.647,4.966,10.071,19.775,17.578,-5.6,-59.9,-29.9
16.300,8.295,-0.769,5.160,11.230,18.127,18.738,-5.6,-60.0,-29.9
16.310,8.323,-0.573,5.178,12.085,12.207,18.433,-5.6,-60.1,-29.9
16.320,8.554,-0.573,4.968,11.475,4.639,17.517,-5.7,-60.3,-29.9
16.330,8.526,-0.695,4.287,9.766,1.465,15.686,-5.7,-60.6,-29.9
16.340,8.682,-0.870,4.026,7.690,3.784,14.038,-5.7,-60.9,-30.0
16.350,8.561,-0.907,4.130,5.737,7.080,12.878,-5.7,-61.1,-30.0
16.360,8.341,-0.926,4.304,6.958,9.644,12.756,-5.8,-61.3,-30.1
16.370,8.273,-0.823,4.544,9.338,10.803,13.611,-5.8,-61.5,-30.1
16.380,8.255,-0.725,4.752,11.536,7.568,14.709,-5.7,-61.7,-30.2
16.390,8.434,-0.459,4.677,13.428,3.418,16.174,-5.7,-61.9,-30.2
16.400,8.555,-0.232,4.349,13.367,1.038,17.578,-5.7,-62.2,-30.2
16.410,8.668,-0.281,4.052,12.085,0.488,18.250,-5.7,-62.5,-30.2
16.420,8.777,-0.478,4.029,10.132,1.465,17.761,-5.7,-62.8,-30.2
16.430,8.850,-0.829,4.089,9.033,2.197,16.418,-5.8,-63.1,-30.2
16.440,8.803,-1.029,4.211,11.230,2.869,14.648,-5.8,-63.3,-30.2
16.450,8.676,-1.019,4.150,12.268,2.075,14.099,-5.8,-63.6,-30.2
16.460,8.627,-0.821,4.206,13.062,2.258,14.099,-5.8,-63.9,-30.2
16.470,8.639,-0.467,4.109,13.733,2.197,14.160,-5.8,-64.1,-30.3
16.480,8.565,-0.102,4.009,13.916,2.136,14.526,-5.7,-64.4,-30.4
16.490,8.489,-0.084,3.918,12.695,2.014,14.709,-5.6,-64.7,-30.4
16.500,8.556,-0.246,3.999,9.644,2.319,15.015,-5.6,-64.9,-30.5
16.510,8.489,-0.517,4.203,7.935,2.258,14.221,-5.6,-65.2,-30.6
16.520,8.666,-0.765,4.352,7.385,-1.465,12.390,-5.5,-65.5,-30.7
16.530,8.838,-0.664,4.188,7.874,-7.568,10.193,-5.5,-65.8,-30.8
16.540,8.862,-0.481,3.638,10.559,-9.399,9.949,-5.4,-66.2,-30.9
16.550,8.962,-0.238,3.519,12.268,-5.432,10.498,-5.3,-66.6,-31.1
16.560,8.911,-0.204,3.440,11.963,-2.136,11.597,-5.2,-66.9,-31.2
16.570,8.755,-0.387,3.462,11.963,-1.038,13.000,-5.1,-67.2,-31.4
16.580,8.724,-0.655,3.608,11.963,-1.526,14.221,-5.0,-67.5,-31.4
16.590,8.645,-0.833,3.511,10.437,-5.554,15.137,-5.0,-67.8,-31.4
16.600,8.575,-0.771,3.367,11.047,-7.202,15.869,-5.1,-68.2,-31.4
16.610,8.650,-0.752,3.422,11.658,-6.897,16.235,-5.1,-68.6,-31.4
16.620,8.856,-0.720,3.435,10.742,-10.986,15.503,-5.2,-68.9,-31.3
16.630,8.887,-0.716,3.207,11.353,-13.611,14.954,-5.2,-69.4,-31.3
16.640,9.157,-0.769,3.088,11.536,-12.512,15.137,-5.3,-69.8,-31.3
16.650,9.427,-0.955,2.923,10.071,-11.719,14.954,-5.4,-70.2,-31.3
16.660,9.028,-0.721,2.785,8.728,-10.681,14.954,-5.4,-70.6,-31.2
16.670,8.966,-0.732,2.977,10.315,-6.226,16.235,-5.5,-71.0,-31.2
16.680,8.933,-0.666,3.207,10.010,-6.897,16.357,-5.6,-71.3,-31.1
16.690,8.917,-0.685,3.128,10.376,-10.986,16.235,-5.7,-71.7,-31.1
16.700,9.221,-0.836,3.078,10.620,-15.747,16.174,-5.8,-72.1,-31.0
16.710,9.251,-0.795,2.639,10.620,-17.212,16.785,-5.9,-72.6,-30.9
16.720,9.762,-0.780,2.639,11.658,-15.808,17.883,-6.1,-73.0,-30.7
16.730,9.668,-0.742,2.410,11.353,-15.503,18.555,-6.3,-73.5,-30.6
16.740,10.665,-1.265,2.546,10.803,-18.921,18.250,-6.5,-73.9,-30.3
16.750,9.662,-1.031,1.513,8.850,-19.714,17.395,-6.8,-74.5,-30.1
16.760,9.212,-0.594,1.870,15.137,-2.258,19.775,-7.1,-74.8,-29.9
16.770,8.417,-0.497,2.213,15.015,0.549,20.813,-7.2,-75.1,-29.7
16.780,8.590,-0.850,2.645,12.634,-11.169,19.470,-7.5,-75.5,-29.4
16.790,8.620,-0.888,2.104,11.230,-24.231,17.029,-7.8,-76.0,-29.1
16.800,9.539,-0.785,1.678,13.672,-27.100,16.785,-8.1,-76.5,-28.9
16.810,9.285,-0.691,0.919,9.094,-29.541,15.503,-8.4,-77.1,-28.6
16.820,9.497,-0.566,0.946,10.315,-22.705,15.503,-8.7,-77.7,-28.3
16.830,9.468,-0.655,1.175,8.057,-20.142,14.771,-8.9,-78.2,-28.1
16.840,9.592,-0.554,1.543,7.446,-18.066,14.709,-9.2,-78.7,-27.9
16.850,9.620,-0.624,1.574,8.545,-19.409,14.160,-9.4,-79.2,-27.7
16.860,9.338,-0.499,1.296,8.118,-20.752,12.878,-9.6,-79.7,-27.5
16.870,9.340,-0.544,1.324,8.301,-19.897,12.390,-9.8,-80.2,-27.4
16.880,9.319,-0.651,1.544,7.813,-21.057,11.353,-10.0,-80.7,-27.3
16.890,9.369,-0.533,1.517,8.789,-25.146,10.132,-10.1,-81.3,-27.2
16.900,9.586,-0.452,1.375,10.193,-29.419,9.033,-10.2,-81.8,-27.2
16.910,9.781,-0.325,1.110,10.803,-31.433,8.118,-10.2,-82.4,-27.2
16.920,9.950,-0.232,0.940,10.864,-29.907,7.874,-10.2,-83.0,-27.3
16.930,10.123,-0.290,0.768,10.620,-27.161,7.507,-10.0,-83.6,-27.4
16.940,10.245,-0.326,0.800,10.010,-25.391,6.958,-9.8,-84.2,-27.7
16.950,10.346,-0.216,0.774,10.132,-24.597,6.287,-9.5,-84.7,-28.0
16.960,10.309,-0.089,0.736,11.047,-23.682,5.493,-8.9,-85.3,-28.6
16.970,10.375,0.026,0.666,12.390,-22.644,4.761,-8.0,-85.8,-29.6
16.980,10.324,0.017,0.563,12.390,-23.315,3.601,-6.5,-86.4,-31.0
16.990,10.218,0.146,0.320,12.329,-23.682,2.625,-4.4,-86.9,-33.2
17.000,10.015,-0.002,0.194,12.573,-23.376,2.197,-1.3,-87.4,-36.3
17.010,10.000,-0.050,0.303,14.221,-22.949,1.892,3.4,-88.0,-41.0
17.020,9.887,0.060,0.138,15.991,-26.184,1.465,11.5,-88.5,-49.0
17.030,9.945,0.042,-0.167,17.273,-28.625,1.282,27.8,-89.0,-65.3
17.040,9.964,0.013,-0.540,16.602,-29.236,1.282,63.7,-89.3,-101.2
17.050,10.177,0.160,-0.787,16.418,-26.978,1.465,106.8,-89.1,-144.2
17.060,10.214,0.265,-0.811,15.320,-24.109,1.770,128.5,-88.7,-165.9
17.070,10.378,0.344,-0.742,14.526,-21.301,1.892,138.0,-88.2,-175.4
17.080,10.336,0.278,-0.686,14.465,-20.142,1.953,143.1,-87.7,179.5
17.090,10.331,0.211,-0.640,14.465,-20.447,1.953,146.3,-87.2,176.4
17.100,10.315,0.284,-0.517,15.442,-21.912,2.380,148.6,-86.6,174.0
17.110,10.366,0.429,-0.695,17.029,-24.536,2.686,150.5,-86.1,172.2
17.120,10.360,0.608,-1.066,18.066,-26.184,3.662,152.1,-85.5,170.6
17.130,10.415,0.575,-1.303,17.761,-24.353,4.150,153.4,-85.0,169.4
17.140,10.428,0.663,-1.369,16.602,-21.667,4.822,154.4,-84.4,168.4
17.150,10.472,0.652,-1.183,15.869,-18.311,5.432,155.1,-83.9,167.7
17.160,10.414,0.547,-1.099,16.357,-18.860,5.554,155.7,-83.4,167.2
17.170,10.458,0.664,-1.254,16.907,-20.630,5.676,156.3,-82.9,166.6
17.180,10.456,0.686,-1.688,17.517,-21.301,6.042,156.8,-82.4,166.1
17.190,10.452,0.834,-1.894,17.639,-20.142,6.653,157.3,-81.9,165.6
17.200,10.415,0.959,-2.051,17.578,-18.555,7.324,157.8,-81.3,165.2
17.210,10.388,1.011,-2.229,17.822,-16.846,8.423,158.2,-80.8,164.8
17.220,10.299,0.989,-2.268,17.395,-14.221,9.521,158.6,-80.4,164.5
17.230,10.230,0.982,-2.279,16.357,-11.963,10.254,158.9,-79.9,164.2
17.240,10.154,1.033,-2.275,16.235,-10.742,10.742,159.2,-79.5,163.9
17.250,10.135,1.090,-2.281,16.113,-10.132,11.169,159.5,-79.1,163.6
17.260,10.048,1.096,-2.352,16.174,-10.376,11.292,159.8,-78.7,163.4
17.270,9.971,1.082,-2.445,15.930,-10.498,11.475,160.0,-78.2,163.2
17.280,9.925,1.052,-2.566,14.709,-10.681,11.292,160.2,-77.8,163.0
17.290,9.942,0.940,-2.489,13.306,-11.292,10.925,160.5,-77.4,162.8
17.300,9.987,0.955,-2.579,13.123,-11.780,10.986,160.7,-77.0,162.6
17.310,10.017,0.946,-2.645,13.550,-11.108,11.414,160.9,-76.5,162.3
17.320,9.984,0.889,-2.786,14.587,-10.193,11.780,161.1,-76.1,162.1
17.330,9.957,0.850,-2.842,15.076,-9.399,11.963,161.3,-75.7,161.9
17.340,10.032,0.814,-2.864,15.930,-7.751,12.451,161.5,-75.3,161.7
17.350,10.067,0.808,-2.870,16.785,-6.531,12.756,161.7,-75.0,161.5
17.360,10.060,0.725,-2.859,18.005,-5.188,13.245,162.0,-74.6,161.4
17.370,10.017,0.721,-2.906,19.470,-3.601,13.916,162.2,-74.3,161.2
17.380,9.999,0.675,-2.899,20.508,-2.563,14.587,162.5,-74.0,161.0
17.390,9.989,0.733,-3.008,21.301,-2.258,14.954,162.7,-73.6,160.8
17.400,9.869,0.724,-3.156,22.034,-2.747,15.137,163.0,-73.3,160.6
17.410,9.871,0.819,-3.310,20.203,-2.808,14.893,163.3,-73.0,160.4
17.420,9.713,1.002,-3.437,18.433,-2.136,14.648,163.5,-72.7,160.3
17.430,9.543,1.202,-3.470,16.479,-0.549,14.709,163.6,-72.3,160.2
17.440,9.702,1.120,-3.231,14.587,1.343,14.832,163.7,-72.0,160.1
17.450,9.851,1.074,-3.155,13.123,1.221,14.282,163.7,-71.8,160.0
17.460,10.012,0.845,-3.156,13.184,1.404,14.099,163.8,-71.5,160.0
17.470,10.114,0.700,-3.284,14.160,1.892,14.221,163.9,-71.2,159.9
17.480,10.079,0.610,-3.567,15.686,2.930,14.709,164.0,-71.0,159.8
17.490,10.025,0.610,-3.637,16.541,5.676,15.503,164.1,-70.7,159.7
17.500,9.763,0.689,-3.659,16.907,6.348,15.808,164.3,-70.5,159.6
17.510,9.592,0.740,-3.763,17.944,8.362,16.479,164.4,-70.3,159.5
17.520,9.532,0.727,-3.590,18.005,10.254,16.479,164.5,-70.1,159.4
17.530,9.521,0.795,-3.568,17.761,10.742,16.357,164.7,-69.9,159.4
17.540,9.595,0.728,-3.479,16.724,11.169,16.174,164.8,-69.7,159.3
17.550,9.679,0.742,-3.418,15.808,11.536,16.296,164.8,-69.5,159.3
17.560,9.710,0.717,-3.382,16.174,12.268,17.090,164.9,-69.4,159.2
17.570,9.840,0.733,-3.410,17.029,12.573,17.883,165.0,-69.2,159.1
17.580,9.842,0.844,-3.546,17.273,11.475,17.883,165.2,-69.1,159.0
17.590,9.847,0.934,-3.810,16.907,10.864,17.822,165.3,-68.9,159.0
17.600,9.697,1.055,-3.987,15.930,12.146,17.822,165.4,-68.7,158.9
17.610,9.583,1.064,-4.062,15.198,15.198,17.761,165.4,-68.5,158.8
17.620,9.435,0.989,-3.832,14.587,18.738,17.822,165.5,-68.4,158.8
17.630,9.470,0.895,-3.574,14.709,20.996,17.761,165.5,-68.3,158.8
17.640,9.532,0.834,-3.404,14.465,19.653,17.578,165.5,-68.3,158.8
17.650,9.692,0.824,-3.486,15.320,17.456,17.212,165.5,-68.2,158.8
17.660,9.789,0.913,-3.680,15.198,15.991,17.395,165.6,-68.1,158.8
17.670,9.655,0.985,-3.893,15.320,16.479,17.944,165.6,-67.9,158.8
17.680,9.610,1.053,-3.939,15.076,18.616,18.738,165.7,-67.8,158.7
17.690,9.431,1.083,-3.999,14.648,19.959,18.860,165.7,-67.7,158.7
17.700,9.315,1.050,-3.862,14.648,20.752,18.799,165.7,-67.6,158.7
17.710,9.253,0.909,-3.788,14.771,20.935,18.677,165.8,-67.6,158.7
17.720,9.331,0.845,-3.631,13.611,20.325,18.311,165.8,-67.5,158.7
17.730,9.441,0.819,-3.711,13.794,19.226,18.188,165.8,-67.4,158.6
17.740,9.634,0.925,-3.722,13.672,18.005,18.250,165.9,-67.3,158.6
17.750,9.653,0.972,-3.933,13.733,18.372,18.372,165.9,-67.2,158.6
17.760,9.662,1.087,-3.982,13.306,19.836,18.921,165.9,-67.1,158.5
17.770,9.598,1.131,-3.981,13.123,21.484,19.104,165.9,-67.0,158.5
17.780,9.541,1.104,-3.974,13.123,22.522,19.104,165.9,-67.0,158.5
17.790,9.461,1.028,-4.001,12.817,22.156,18.921,165.9,-66.9,158.5
17.800,9.424,1.058,-4.015,12.817,22.156,18.616,165.9,-66.8,158.5
17.810,9.365,0.912,-3.976,12.451,22.339,18.555,165.9,-66.8,158.5
17.820,9.303,0.868,-3.921,12.085,23.560,18.616,165.9,-66.7,158.5
17.830,9.313,0.879,-3.839,12.268,23.254,18.860,165.9,-66.7,158.5
17.840,9.314,0.868,-3.786,12.512,21.973,19.104,166.0,-66.6,158.5
17.850,9.407,0.990,-3.829,13.123,20.691,19.287,166.0,-66.5,158.4
17.860,9.537,1.150,-4.856,13.855,20.508,19.348,166.0,-66.5,158.4
17.870,9.811,1.209,-5.254,14.099,35.278,20.935,166.1,-66.4,158.4
17.880,9.617,1.046,-3.484,5.676,39.673,21.545,166.0,-66.5,158.4
17.890,9.580,0.926,-3.419,9.399,34.180,20.813,165.9,-66.6,158.4
17.900,9.677,0.986,-4.388,13.062,37.109,20.691,165.9,-66.7,158.5
17.910,9.389,0.930,-3.685,7.629,38.635,20.996,165.8,-66.8,158.5
17.920,9.242,0.936,-3.745,7.874,37.048,21.118,165.7,-66.9,158.5
17.930,9.206,0.980,-3.841,9.277,37.598,21.484,165.7,-67.0,158.5
17.940,9.251,0.965,-3.662,9.399,37.781,21.545,165.6,-67.1,158.5
17.950,9.283,1.029,-3.604,10.071,36.682,21.484,165.6,-67.2,158.6
17.960,9.355,1.061,-3.750,10.010,34.607,21.606,165.5,-67.3,158.6
17.970,9.419,1.067,-3.860,10.315,35.400,21.423,165.5,-67.3,158.6
17.980,9.375,1.013,-3.806,10.193,35.584,21.484,165.4,-67.4,158.6
17.990,9.362,1.051,-3.644,9.216,35.706,22.034,165.4,-67.5,158.6
18.000,9.393,0.997,-3.383,7.141,31.982,22.156,165.3,-67.5,158.6
18.010,9.734,0.800,-4.177,11.475,32.837,21.973,165.3,-67.6,158.6
18.020,9.350,1.011,-3.698,10.742,38.269,22.766,165.3,-67.7,158.5
18.030,9.279,0.943,-3.672,7.996,34.729,22.949,165.3,-67.8,158.5
18.040,9.296,0.991,-3.574,11.902,30.029,21.484,165.3,-67.8,158.5
18.050,9.668,1.059,-3.869,11.658,30.884,21.240,165.4,-67.8,158.4
18.060,9.582,0.894,-3.765,9.827,32.654,21.973,165.3,-67.9,158.4
18.070,9.343,1.244,-3.607,9.766,36.072,22.339,165.3,-67.9,158.4
18.080,9.137,1.184,-3.726,6.104,33.325,23.132,165.3,-68.0,158.4
18.090,9.450,0.934,-3.330,3.418,28.442,23.010,165.2,-68.0,158.3
18.100,9.406,0.938,-3.377,8.789,26.062,21.423,165.2,-68.0,158.3
18.110,9.374,1.130,-4.097,9.033,26.978,21.484,165.2,-68.0,158.2
18.120,9.624,0.652,-3.122,15.015,30.518,20.203,165.3,-68.0,158.2
18.130,9.030,1.602,-4.462,14.648,34.973,21.301,165.3,-68.1,158.2
18.140,9.430,1.073,-3.334,-0.305,28.870,22.888,165.2,-68.1,158.2
18.150,9.319,0.912,-3.473,3.967,26.062,22.339,165.1,-68.1,158.1
18.160,9.306,0.788,-3.286,11.841,28.564,21.851,165.2,-68.1,158.0
18.170,9.598,1.057,-4.220,14.526,30.334,21.729,165.2,-68.1,158.0
18.180,9.393,1.046,-3.198,9.216,32.471,22.705,165.2,-68.2,157.9
18.190,9.825,0.741,-3.859,9.460,29.663,23.071,165.3,-68.2,157.9
18.200,9.498,0.834,-3.611,9.094,32.471,23.254,165.3,-68.2,157.8
18.210,9.877,0.284,-3.187,13.611,32.776,22.400,165.4,-68.3,157.7
18.220,9.361,0.940,-3.851,21.057,39.185,21.667,165.5,-68.4,157.7
18.230,9.190,1.158,-3.977,11.292,39.063,23.132,165.5,-68.5,157.7
18.240,9.346,0.895,-3.332,2.747,34.912,23.438,165.4,-68.6,157.6
18.250,9.302,0.976,-3.338,5.920,36.133,23.010,165.4,-68.7,157.6
18.260,9.738,0.735,-3.186,8.972,38.269,22.827,165.3,-68.8,157.6
18.270,9.412,1.004,-3.320,14.648,44.922,22.644,165.3,-68.9,157.6
18.280,9.394,0.847,-3.805,11.475,43.762,23.560,165.3,-69.1,157.6
18.290,9.227,0.871,-3.380,9.094,41.321,22.827,165.3,-69.2,157.6
18.300,9.737,0.533,-3.679,9.338,38.147,22.461,165.2,-69.3,157.6
18.310,9.397,0.913,-3.302,11.902,45.044,22.461,165.2,-69.5,157.6
18.320,9.427,0.729,-3.442,9.277,43.152,23.560,165.2,-69.7,157.6
18.330,9.312,0.804,-3.404,8.606,40.833,22.827,165.1,-69.8,157.6
18.340,9.433,0.761,-3.152,10.071,39.978,22.766,165.1,-69.9,157.6
9.790,14.916,-3.431,7.127,25.513,-62.195,-40.222,6.6,-77.7,120.2
9.800,16.211,-3.981,5.120,54.077,-45.105,-51.392,8.8,-78.0,118.5
9.810,14.686,-2.560,5.174,66.589,-12.695,-48.340,10.9,-78.1,116.9
9.820,11.803,0.169,4.441,72.205,6.104,-34.119,12.8,-77.9,115.7
9.830,9.002,1.633,3.963,62.500,9.644,-19.470,14.3,-77.7,114.8
9.840,7.505,2.363,4.532,40.649,5.432,-11.108,15.4,-77.5,114.1
9.850,7.266,2.392,4.927,24.536,3.296,-6.897,16.2,-77.2,113.6
9.860,7.518,2.181,4.878,14.832,6.897,-6.470,16.8,-77.0,113.3
9.870,8.165,1.322,5.065,7.019,5.554,-7.202,17.2,-76.8,112.9
9.880,9.479,-0.009,5.189,4.272,-6.470,-8.545,17.5,-76.6,112.7
9.890,11.947,-0.850,5.207,13.794,-23.987,-11.292,17.9,-76.7,112.3
9.900,13.786,-1.043,3.814,29.053,-44.006,-15.686,18.8,-77.0,111.6
9.910,14.124,-0.463,1.274,46.997,-44.800,-15.320,20.2,-77.4,110.6
9.920,12.633,0.842,0.242,53.467,-22.766,-10.620,21.7,-77.7,109.7
9.930,10.592,0.913,1.781,49.988,0.183,-4.456,22.6,-77.8,109.2
9.940,9.348,0.822,3.391,46.143,3.357,-2.136,23.2,-77.7,109.1
9.950,8.628,0.832,3.474,42.297,-6.409,-1.282,23.6,-77.7,109.1
9.960,8.915,1.043,2.519,37.659,-13.184,0.793,24.1,-77.8,109.0
9.970,8.943,1.169,1.867,33.203,-10.620,3.601,24.6,-77.9,108.9
9.980,8.711,0.754,2.052,29.236,-6.531,6.897,24.8,-77.9,108.9
9.990,8.438,0.332,2.291,29.358,-5.066,8.484,24.8,-78.0,109.3
10.000,8.013,0.148,2.059,28.870,-5.371,9.949,24.7,-78.1,109.7
10.010,8.087,-0.148,1.641,28.503,-6.531,13.000,24.4,-78.2,110.3
10.020,8.250,-0.373,1.345,26.489,-7.080,15.015,24.0,-78.3,110.9
10.030,8.103,-0.393,1.014,25.818,-8.118,16.479,23.5,-78.5,111.7
10.040,8.212,-0.289,0.845,26.428,-7.507,18.555,22.9,-78.7,112.5
10.050,8.113,-0.375,0.834,27.893,-7.202,19.409,22.3,-78.9,113.4
10.060,8.279,-0.493,0.640,30.640,-6.470,19.470,21.7,-79.0,114.4
10.070,8.033,-0.557,0.667,33.264,-5.737,19.104,21.1,-79.2,115.4
10.080,7.337,-0.501,0.770,37.231,-6.104,19.653,20.4,-79.4,116.4
10.090,7.430,-0.637,0.808,40.771,-9.827,20.996,19.7,-79.6,117.5
10.100,7.467,-0.457,0.638,44.739,-12.573,20.691,19.1,-79.8,118.6
10.110,7.825,-0.406,0.594,47.668,-15.503,19.836,18.6,-80.0,119.5
10.120,8.376,-0.293,0.352,48.340,-17.273,17.456,18.3,-80.3,120.3
10.130,8.799,0.370,0.314,47.974,-15.564,15.625,18.1,-80.6,121.0
10.140,8.725,0.783,0.048,45.532,-14.282,15.808,18.1,-80.8,121.5
10.150,8.670,1.034,0.061,42.175,-12.512,17.151,18.0,-81.0,122.1
10.160,8.376,1.167,0.248,40.405,-7.813,17.639,17.8,-81.2,122.6
10.170,8.305,1.345,0.433,40.039,-2.197,17.273,17.5,-81.3,123.4
10.180,8.287,1.013,0.524,39.246,2.441,17.395,17.1,-81.4,124.2
10.190,8.143,1.090,0.633,37.903,5.798,15.930,16.7,-81.4,125.0
10.200,8.301,1.178,0.462,35.339,8.179,15.564,16.2,-81.4,125.9
10.210,8.534,0.984,0.134,31.738,10.193,15.747,15.6,-81.4,126.8
10.220,8.795,0.991,-0.106,28.748,15.320,15.930,14.9,-81.3,127.8
10.230,9.004,0.990,-0.337,26.001,20.203,14.526,14.2,-81.2,128.8
10.240,9.149,0.873,-0.449,22.888,24.292,12.512,13.6,-81.1,129.7
10.250,9.172,0.998,-0.380,20.691,26.001,10.193,13.1,-81.0,130.4
10.260,9.168,0.862,-0.319,18.311,24.048,8.606,12.7,-80.8,131.1
10.270,9.114,0.596,-0.039,15.747,20.569,7.202,12.3,-80.7,131.6
10.280,9.422,0.038,0.389,11.841,13.062,4.944,12.1,-80.6,132.0
10.290,9.485,-0.392,0.771,9.888,4.028,1.892,11.9,-80.6,132.2
10.300,9.653,-0.847,0.983,8.911,-5.554,-2.136,11.9,-80.7,132.3
10.310,9.449,-1.097,1.523,7.324,-18.677,-9.277,12.3,-80.8,132.0
10.320,9.319,-0.713,2.029,5.005,-38.391,-19.165,13.5,-81.1,130.9
10.330,9.605,0.905,0.619,5.920,-60.364,-28.564,15.9,-81.6,128.4
10.340,10.047,3.757,-0.354,-9.583,-64.941,-30.273,19.8,-82.2,124.5
10.350,10.867,4.417,0.417,-9.583,-31.494,-13.428,23.4,-82.5,120.7
10.360,10.633,1.576,5.245,-3.540,-3.662,7.141,24.6,-82.5,119.6
10.370,9.721,-1.959,13.105,-1.221,-33.203,20.996,23.1,-82.5,121.0
10.380,10.258,-0.879,10.298,2.319,-112.488,30.151,21.4,-83.0,122.7
10.390,12.838,3.137,1.294,-0.854,-150.879,48.767,21.4,-84.3,122.7
10.400,13.638,3.085,-5.692,-14.893,-104.187,75.012,20.9,-85.7,123.1
10.410,12.631,0.273,-3.637,-14.465,-3.784,81.787,13.1,-86.5,130.7
10.420,11.628,-2.106,7.305,-1.831,43.823,63.660,1.2,-86.3,142.6
10.430,12.085,-1.249,8.106,20.691,-9.033,42.969,-6.5,-85.8,150.5
10.440,13.805,-0.349,1.271,31.494,-34.363,33.936,-11.7,-85.9,156.0
10.450,14.450,0.130,0.175,29.846,4.761,27.344,-15.6,-85.9,160.2
10.460,13.319,0.947,1.890,14.160,30.945,15.869,-16.6,-85.6,161.5
10.470,11.804,1.519,2.323,-4.700,20.020,4.517,-15.7,-85.3,160.5
10.480,11.453,1.752,1.725,-14.648,20.630,-3.357,-13.9,-85.1,158.7
10.490,10.855,1.472,2.487,-19.165,24.658,-11.841,-11.4,-84.9,155.9
10.500,10.600,1.503,2.851,-18.494,10.681,-17.578,-8.5,-84.7,152.9
10.510,11.098,1.787,1.670,-13.550,2.930,-17.273,-5.9,-84.6,150.0
10.520,10.724,1.842,0.669,-11.230,8.728,-10.803,-3.6,-84.5,147.7
10.530,10.280,2.420,0.473,-15.625,15.198,-4.578,-2.2,-84.4,146.1
10.540,9.734,2.443,0.791,-22.400,23.132,-1.770,-1.0,-84.3,144.7
10.550,8.869,2.299,1.357,-24.658,27.466,-0.854,0.0,-84.0,143.5
10.560,8.565,1.892,1.341,-25.146,25.574,0.183,0.7,-83.7,142.6
10.570,8.623,1.470,0.979,-27.588,22.705,-0.183,1.1,-83.5,141.9
10.580,8.737,0.958,0.721,-29.663,22.949,-1.892,1.4,-83.2,141.3
10.590,8.725,0.145,0.639,-29.480,22.400,-6.287,1.8,-83.0,140.6
10.600,8.354,-0.770,0.567,-27.954,21.912,-10.193,2.1,-82.8,140.0
10.610,8.119,-1.280,0.739,-24.658,20.691,-11.780,2.4,-82.6,139.5
10.620,7.940,-1.110,0.734,-22.583,19.836,-10.986,2.5,-82.4,139.1
10.630,7.608,-1.076,0.800,-20.142,19.592,-8.179,2.6,-82.2,138.8
10.640,7.487,-0.965,0.590,-16.113,18.860,-4.639,2.4,-82.1,138.8
10.650,7.287,-0.549,0.585,-12.512,19.836,-2.502,2.2,-81.9,138.9
10.660,7.162,-0.426,0.800,-9.766,18.738,-0.244,1.9,-81.7,139.0
10.670,7.252,-0.275,0.728,-7.813,16.602,2.136,1.6,-81.6,139.3
10.680,7.596,-0.072,0.576,-6.531,16.602,4.761,1.1,-81.4,139.7
10.690,7.807,0.352,0.336,-5.127,17.944,6.409,0.7,-81.3,140.1
10.700,7.794,0.514,0.072,-4.578,18.921,7.507,0.3,-81.1,140.5
10.710,7.837,0.561,0.002,-3.418,21.240,7.996,-0.1,-81.0,140.8
10.720,7.879,0.564,-0.235,-3.357,22.583,8.118,-0.5,-80.8,141.2
10.730,8.250,0.679,-0.319,-5.432,21.790,8.423,-0.9,-80.7,141.5
10.740,8.525,0.693,-0.507,-7.324,20.386,8.301,-1.2,-80.5,141.8
10.750,8.411,0.599,-0.696,-7.935,18.616,7.629,-1.6,-80.4,142.1
10.760,8.595,0.577,-0.945,-9.705,17.761,7.690,-1.9,-80.3,142.4
10.770,8.157,0.584,-0.791,-11.963,17.273,8.484,-2.3,-80.3,142.7
10.780,7.972,0.856,-0.475,-14.893,12.573,9.155,-2.8,-80.2,143.0
10.790,8.039,1.085,0.075,-17.090,5.493,9.155,-3.3,-80.2,143.3
10.800,8.315,1.526,0.377,-21.545,-5.554,8.057,-3.6,-80.3,143.5
10.810,8.918,1.767,0.603,-25.513,-13.428,8.850,-4.0,-80.5,143.6
10.820,9.629,1.302,0.693,-26.855,-18.555,11.841,-4.5,-80.7,143.9
10.830,9.988,0.450,0.467,-24.902,-23.254,16.357,-5.5,-80.9,144.6
10.840,9.868,-0.338,0.794,-21.606,-23.682,19.897,-7.0,-81.2,145.9
10.850,9.733,-0.695,2.560,-18.433,-21.729,18.433,-8.7,-81.4,147.5
10.860,9.570,-0.850,7.366,-21.545,-25.330,8.606,-10.0,-81.5,148.5
10.870,10.585,-0.211,9.907,-25.452,-54.138,-12.817,-10.1,-81.7,148.4
10.880,12.777,-2.065,9.028,-15.198,-71.533,-35.217,-8.7,-82.1,146.8
10.890,15.510,-4.582,9.249,13.000,-62.561,-58.594,-5.9,-82.5,144.1
10.900,14.851,-4.378,7.435,49.377,-33.630,-76.721,-1.5,-82.6,140.0
10.910,12.439,-3.381,3.744,80.322,6.592,-68.115,3.3,-82.4,135.9
10.920,9.310,-0.682,2.064,69.092,26.794,-45.898,6.8,-82.1,133.0
10.930,8.268,0.290,2.607,53.894,41.626,-21.301,8.7,-81.7,131.8
10.940,7.977,0.303,5.208,38.574,47.546,-7.996,9.3,-81.1,131.6
10.950,8.353,0.486,6.815,25.024,16.418,-11.047,9.7,-80.6,131.4
10.960,10.056,0.650,5.828,18.188,-28.992,-18.921,10.9,-80.5,130.4
10.970,13.897,0.821,4.326,26.062,-50.842,-22.461,12.9,-80.8,128.6
10.980,16.223,0.236,3.027,42.847,-45.410,-23.865,15.5,-81.1,126.4
10.990,15.658,-1.269,1.617,63.110,-20.325,-20.691,17.7,-81.3,124.7
11.000,12.945,-1.520,1.349,74.463,5.005,-14.587,18.9,-81.3,124.2
11.010,10.675,-1.438,2.854,83.679,20.508,-5.249,19.3,-81.2,124.7
11.020,9.223,-0.964,3.686,85.938,14.038,0.122,19.2,-81.0,125.6
11.030,8.961,-0.503,2.879,77.026,0.610,1.648,19.3,-80.9,126.3
11.040,9.611,0.287,2.164,68.665,-2.502,2.686,19.6,-80.9,126.7
11.050,9.953,1.027,2.210,64.209,0.122,4.639,19.9,-80.9,127.0
11.060,9.925,1.159,2.339,63.477,5.798,6.653,20.2,-80.8,127.4
11.070,9.610,0.674,2.607,66.650,10.376,10.132,20.2,-80.7,128.1
11.080,9.547,0.104,2.323,67.017,12.024,13.611,19.8,-80.6,129.2
11.090,9.461,-0.675,2.080,65.247,13.000,16.724,19.1,-80.5,130.6
11.100,9.593,-1.127,2.118,65.063,11.963,18.433,18.1,-80.4,132.2
11.110,9.531,-1.140,2.045,66.834,11.047,18.860,17.1,-80.4,133.9
11.120,9.468,-0.926,1.768,67.261,11.475,19.165,16.0,-80.3,135.6
11.130,9.187,-0.639,1.649,65.796,13.428,19.287,15.1,-80.3,137.3
11.140,9.034,-0.385,1.618,66.040,14.587,20.142,14.2,-80.2,138.9
11.150,8.768,-0.054,1.369,66.406,15.320,21.790,13.2,-80.1,140.5
11.160,8.727,0.251,1.445,66.589,15.625,23.254,12.4,-80.0,142.0
11.170,8.894,0.376,1.609,68.665,9.888,23.621,11.6,-80.0,143.5
11.180,8.970,0.563,1.290,71.411,5.005,22.949,11.0,-79.9,144.8
11.190,9.016,0.500,1.318,72.876,3.967,21.973,10.6,-80.0,146.0
11.200,9.288,0.299,1.289,74.585,3.906,21.545,10.1,-80.0,147.2
11.210,9.525,0.170,1.215,73.975,5.432,20.569,9.7,-80.0,148.4
11.220,9.746,0.022,1.254,72.449,6.348,17.639,9.3,-80.0,149.5
11.230,9.549,-0.169,1.330,72.876,8.423,14.526,9.1,-79.9,150.5
11.240,9.443,-0.137,1.462,73.730,10.315,13.123,8.9,-79.9,151.4
11.250,9.485,-0.088,1.587,74.524,11.292,12.695,8.7,-79.8,152.3
11.260,9.597,0.135,1.426,75.012,11.047,13.550,8.6,-79.7,153.2
11.270,9.550,0.419,1.342,74.585,11.963,14.709,8.5,-79.6,154.1
11.280,9.468,0.683,1.262,77.026,14.587,16.052,8.4,-79.5,155.0
11.290,9.448,0.808,1.186,79.712,18.127,16.846,8.3,-79.4,155.9
11.300,9.246,0.790,1.168,79.346,21.545,17.151,8.2,-79.3,156.9
11.310,9.163,0.575,1.284,76.111,23.499,17.822,8.0,-79.1,157.8
11.320,9.203,0.351,1.444,74.219,24.719,18.494,7.7,-78.9,158.9
11.330,9.302,-0.026,1.523,75.317,25.757,18.494,7.4,-78.7,160.0
11.340,9.278,-0.378,1.556,77.698,25.940,17.639,7.1,-78.4,161.1
11.350,9.061,-0.585,1.511,82.153,25.635,16.846,6.8,-78.2,162.2
11.360,8.812,-0.781,1.350,86.304,24.048,15.442,6.6,-78.0,163.3
11.370,8.464,-1.034,1.269,88.013,20.691,14.465,6.5,-77.9,164.3
11.380,8.483,-1.291,0.725,90.393,18.433,15.198,6.4,-77.7,165.3
11.390,8.495,-1.231,0.978,88.440,20.630,17.822,6.1,-77.6,166.5
11.400,8.476,-1.114,1.041,92.712,18.005,20.569,5.8,-77.5,167.7
11.410,8.432,-0.992,0.836,98.938,13.062,22.644,5.5,-77.4,169.0
11.420,8.407,-0.755,0.353,108.948,8.484,24.109,5.2,-77.4,170.4
11.430,8.282,-0.239,-0.166,111.755,5.371,24.597,5.1,-77.4,171.6
11.440,8.414,0.245,-0.131,102.356,11.292,28.137,4.9,-77.4,172.9
11.450,8.408,-0.224,3.027,95.459,30.029,36.682,4.3,-77.3,174.5
11.460,8.056,-1.657,8.257,94.604,33.447,45.044,3.1,-76.9,176.7
11.470,9.673,-1.132,8.403,107.605,10.498,48.828,1.7,-76.4,179.2
11.480,11.817,3.105,4.036,123.779,-13.794,49.011,0.8,-76.3,-178.6
11.490,13.935,7.823,-0.507,110.901,-15.503,56.763,0.6,-76.5,-177.1
11.500,12.738,6.604,-1.643,71.594,9.644,67.139,0.2,-76.7,-175.8
11.510,10.549,2.906,1.584,60.425,42.969,66.284,-0.9,-76.5,-174.0
11.520,9.303,0.487,4.746,70.007,42.664,51.209,-2.1,-76.0,-172.1
11.530,9.386,-0.554,4.512,88.135,24.048,39.246,-2.8,-75.6,-170.5
11.540,10.595,-1.533,2.797,106.873,21.118,38.147,-3.3,-75.3,-169.0
11.550,10.606,-1.751,1.803,119.568,27.649,39.307,-3.8,-75.0,-167.2
11.560,9.601,-1.506,1.527,119.141,28.625,41.199,-4.3,-74.8,-165.5
11.570,8.824,-1.052,2.120,113.281,31.189,45.654,-4.8,-74.5,-163.7
11.580,8.489,0.062,2.614,111.328,30.212,51.697,-5.5,-74.1,-161.9
11.590,8.799,0.821,2.612,108.826,20.874,57.861,-6.2,-73.8,-160.0
11.600,8.839,1.278,2.495,106.506,12.573,61.035,-6.9,-73.6,-158.1
11.610,8.954,1.336,2.277,103.699,5.432,61.340,-7.7,-73.5,-156.3
11.620,9.461,1.538,1.928,103.149,-1.831,58.472,-8.3,-73.4,-154.4
11.630,9.954,2.009,1.363,101.868,-4.089,52.673,-8.8,-73.5,-152.8
11.640,9.604,2.417,1.220,102.539,0.305,47.791,-9.1,-73.5,-151.5
11.650,9.819,2.757,0.922,100.952,-3.906,43.518,-9.2,-73.5,-150.3
11.660,9.951,3.011,0.761,100.708,1.709,41.687,-9.1,-73.6,-149.3
11.670,9.474,2.933,1.282,99.426,11.230,43.030,-9.0,-73.5,-148.3
11.680,9.286,1.967,2.264,96.741,9.766,43.945,-9.0,-73.4,-147.3
11.690,8.817,1.579,3.105,94.727,3.113,41.687,-9.0,-73.3,-146.2
11.700,8.768,1.080,3.215,92.834,-1.709,38.391,-9.1,-73.3,-145.1
11.710,8.966,0.924,2.691,88.623,-2.808,33.630,-9.1,-73.2,-144.1
11.720,9.089,1.434,1.908,79.346,-2.441,28.381,-9.1,-73.2,-143.3
11.730,9.198,1.808,2.000,70.618,1.038,24.780,-8.9,-73.2,-142.7
11.740,9.045,1.865,2.757,66.956,4.700,22.278,-8.6,-73.2,-142.3
11.750,8.951,1.053,2.301,68.604,2.319,20.386,-8.3,-73.1,-141.9
11.760,8.950,0.476,1.890,74.585,2.502,19.714,-8.0,-73.1,-141.4
11.770,9.198,0.901,2.361,78.674,4.517,19.470,-7.7,-73.1,-140.8
11.780,9.043,1.440,3.064,81.360,2.991,16.479,-7.3,-73.1,-140.5
11.790,9.010,2.362,3.680,77.026,-4.272,11.780,-6.6,-73.1,-140.3
11.800,9.879,2.764,4.137,68.542,-12.024,8.911,-5.8,-73.1,-140.4
11.810,10.888,2.337,3.765,64.331,-14.587,8.667,-5.0,-73.2,-140.5
11.820,11.207,1.950,2.258,58.838,-12.451,8.545,-4.3,-73.4,-140.5
11.830,10.638,1.756,1.570,51.270,0.732,7.385,-3.7,-73.5,-140.6
11.840,9.741,0.978,2.367,54.382,18.005,6.226,-3.1,-73.4,-140.6
11.850,8.880,0.522,2.906,60.669,18.494,3.601,-2.5,-73.2,-140.6
11.860,8.761,0.393,2.791,58.594,8.545,2.075,-1.8,-73.1,-140.7
11.870,9.176,0.531,2.580,55.237,1.770,3.906,-1.3,-73.0,-140.6
11.880,9.599,0.582,2.278,53.650,-4.944,8.179,-0.9,-73.1,-140.5
11.890,9.808,0.654,1.671,55.237,-9.888,13.245,-0.7,-73.2,-140.2
11.900,10.037,0.300,1.573,58.838,-6.470,18.555,-0.6,-73.3,-139.6
11.910,10.176,-0.106,2.282,62.134,0.793,22.583,-0.6,-73.4,-138.9
11.920,10.132,-0.505,3.038,63.965,4.639,23.804,-0.8,-73.4,-138.1
11.930,9.762,-0.619,3.230,66.895,5.005,22.644,-1.0,-73.3,-137.2
11.940,9.357,-0.369,2.812,68.604,4.150,19.959,-1.1,-73.3,-136.4
11.950,9.046,-0.051,2.649,69.519,3.540,17.334,-1.0,-73.2,-135.7
11.960,8.836,0.278,2.527,69.092,2.014,15.320,-0.8,-73.2,-135.2
11.970,8.664,0.644,2.207,67.200,-0.732,13.611,-0.5,-73.2,-134.8
11.980,8.623,0.693,1.592,64.026,-0.610,12.939,-0.2,-73.3,-134.4
11.990,8.769,0.596,1.549,61.157,3.235,13.733,0.1,-73.3,-134.1
12.000,8.749,0.265,1.881,60.059,5.554,15.381,0.2,-73.3,-133.6
12.010,8.789,-0.065,2.114,61.768,5.371,17.212,0.3,-73.3,-133.1
12.020,9.046,-0.454,2.259,64.697,5.737,18.494,0.3,-73.2,-132.4
12.030,9.292,-0.761,2.495,67.261,6.592,18.738,0.3,-73.2,-131.7
12.040,9.376,-0.815,2.477,68.542,7.874,18.066,0.3,-73.1,-130.9
12.050,9.179,-0.657,2.611,68.848,11.963,17.761,0.3,-73.0,-130.2
12.060,8.937,-0.347,2.298,68.054,16.907,18.555,0.2,-72.9,-129.5
12.070,8.644,-0.173,2.592,67.078,21.484,20.508,0.2,-72.7,-128.8
12.080,8.718,0.050,2.580,66.650,18.311,21.973,0.2,-72.5,-128.0
12.090,8.851,0.057,2.888,68.298,17.883,23.254,0.2,-72.3,-127.3
12.100,9.282,-0.162,2.643,67.688,14.099,23.560,0.1,-72.2,-126.5
12.110,9.405,-0.499,2.106,67.200,12.390,23.560,0.0,-72.1,-125.7
12.120,9.295,-0.740,1.770,67.322,15.503,23.865,-0.1,-72.0,-124.9
12.130,9.002,-0.945,1.912,68.604,17.639,24.231,-0.3,-71.9,-124.0
12.140,8.672,-1.012,1.879,71.594,17.029,24.963,-0.5,-71.7,-123.1
12.150,8.475,-1.150,1.949,74.951,16.968,26.184,-0.6,-71.6,-122.1
12.160,8.354,-1.071,2.030,77.698,16.296,27.466,-0.8,-71.5,-121.1
12.170,8.320,-0.779,2.266,78.491,16.968,29.053,-1.0,-71.3,-120.1
12.180,8.310,-0.551,2.394,79.285,17.517,29.968,-1.2,-71.2,-119.1
12.190,8.628,-0.458,2.963,79.773,19.287,30.579,-1.3,-71.0,-118.1
12.200,9.067,-0.423,3.524,78.491,18.005,30.029,-1.4,-70.8,-117.2
12.210,9.624,-0.183,3.459,76.660,14.526,29.175,-1.5,-70.6,-116.3
12.220,9.851,0.310,3.094,72.632,13.672,29.297,-1.6,-70.5,-115.4
12.230,9.763,0.900,2.876,67.688,15.259,30.762,-1.7,-70.4,-114.6
12.240,9.355,1.454,2.942,63.354,16.479,32.532,-1.7,-70.2,-113.8
12.250,9.048,1.531,3.115,59.631,15.015,32.959,-1.8,-70.1,-113.0
12.260,9.063,1.069,3.130,58.044,11.230,31.311,-1.9,-69.9,-112.3
12.270,9.246,0.304,3.109,56.885,8.484,27.893,-2.0,-69.9,-111.6
12.280,9.387,-0.296,2.819,57.495,7.629,24.719,-2.1,-69.8,-110.9
12.290,9.449,-0.566,2.598,59.570,6.470,23.010,-2.1,-69.7,-110.2
12.300,9.380,-0.762,2.449,62.683,6.226,22.888,-2.2,-69.7,-109.5
12.310,9.194,-0.932,2.647,66.223,8.423,23.926,-2.2,-69.7,-108.7
12.320,9.060,-1.220,2.969,68.909,12.329,25.757,-2.3,-69.6,-107.9
12.330,9.097,-1.377,3.461,68.665,15.930,27.283,-2.5,-69.4,-107.0
12.340,9.157,-1.108,3.722,67.383,16.418,28.076,-2.7,-69.2,-106.1
12.350,9.278,-0.478,3.644,67.017,12.573,27.893,-2.8,-69.1,-105.3
12.360,9.385,0.496,3.148,67.444,5.981,27.832,-2.9,-69.0,-104.5
12.370,9.409,1.383,2.787,66.956,1.587,29.236,-2.8,-69.0,-103.8
12.380,9.388,1.530,2.754,65.796,2.319,32.471,-2.8,-69.0,-103.1
12.390,9.324,1.252,3.008,64.575,5.005,35.828,-2.8,-69.0,-102.4
12.400,9.342,0.630,3.180,62.195,4.578,37.659,-3.0,-68.9,-101.5
12.410,9.409,0.168,3.361,58.838,1.099,37.048,-3.3,-68.9,-100.5
12.420,9.587,-0.221,3.410,57.129,-1.892,34.424,-3.6,-68.9,-99.6
12.430,9.613,-0.301,3.458,56.885,-2.380,30.945,-3.8,-68.9,-98.7
12.440,9.699,-0.162,3.164,55.847,-2.747,26.917,-4.0,-68.9,-97.9
12.450,9.640,0.285,2.744,53.101,-2.869,22.644,-4.1,-69.0,-97.2
12.460,9.737,0.585,2.430,50.293,1.160,19.592,-4.0,-69.0,-96.7
12.470,9.551,1.070,2.556,46.814,4.028,16.602,-3.9,-69.0,-96.4
12.480,9.236,1.195,2.788,45.959,5.127,14.465,-3.6,-69.0,-96.1
12.490,9.211,0.936,3.244,46.570,5.737,13.306,-3.3,-69.0,-95.9
12.500,9.136,0.485,3.275,47.302,4.517,13.428,-3.1,-68.9,-95.7
12.510,9.219,0.120,2.955,48.096,1.465,14.526,-2.9,-68.9,-95.3
12.520,9.470,-0.427,2.856,47.607,-1.709,16.479,-2.8,-69.0,-94.9
12.530,9.632,-0.688,2.819,46.570,-5.249,18.494,-2.9,-69.0,-94.4
12.540,9.719,-0.817,2.674,45.837,-7.568,20.081,-3.0,-69.1,-93.7
12.550,9.531,-0.713,2.434,46.692,-5.920,21.423,-3.2,-69.2,-93.0
12.560,9.374,-0.436,2.446,47.424,-3.418,21.301,-3.3,-69.3,-92.4
12.570,9.139,-0.059,2.291,48.096,-1.160,20.935,-3.4,-69.4,-91.8
12.580,9.285,0.448,2.350,47.485,2.380,21.484,-3.5,-69.4,-91.2
12.590,9.501,0.819,2.527,49.683,2.808,21.423,-3.5,-69.4,-90.7
12.600,9.470,0.941,2.200,53.711,1.038,21.179,-3.4,-69.4,-90.2
12.610,9.243,0.889,1.743,54.443,2.686,21.423,-3.2,-69.4,-89.7
12.620,9.075,0.619,1.746,52.368,7.446,21.606,-3.2,-69.4,-89.2
12.630,9.190,0.124,2.273,49.622,12.573,21.606,-3.1,-69.4,-88.7
12.640,9.216,-0.388,3.122,46.997,14.893,20.264,-3.2,-69.3,-88.2
12.650,9.024,-0.490,3.372,48.401,8.240,18.005,-3.2,-69.2,-87.6
12.660,8.786,-0.139,2.696,50.415,-2.747,16.663,-3.1,-69.2,-87.1
12.670,8.772,0.450,2.130,48.340,-10.437,17.639,-3.1,-69.3,-86.6
12.680,8.701,0.988,1.701,45.776,-12.939,20.020,-3.1,-69.5,-86.2
12.690,8.662,1.294,1.573,44.678,-10.498,23.010,-3.1,-69.6,-85.6
12.700,8.595,1.280,1.611,43.213,-6.409,25.269,-3.2,-69.8,-85.1
12.710,8.559,1.154,1.936,41.382,-4.395,26.184,-3.3,-69.9,-84.5
12.720,8.821,1.113,2.398,38.635,-6.226,26.794,-3.5,-70.0,-83.9
12.730,9.143,1.112,2.504,37.842,-9.949,27.954,-3.7,-70.1,-83.2
12.740,9.581,0.919,2.414,37.231,-9.155,29.663,-4.0,-70.2,-82.5
12.750,9.764,0.559,2.396,37.354,-3.479,30.029,-4.3,-70.3,-81.7
12.760,9.697,0.304,2.624,34.729,2.014,29.236,-4.7,-70.3,-80.9
12.770,9.327,0.308,2.728,31.677,3.174,28.564,-5.1,-70.3,-80.1
12.780,9.166,0.423,2.814,29.602,0.916,28.931,-5.5,-70.2,-79.4
12.790,9.286,0.711,2.791,27.649,-3.235,29.419,-5.9,-70.3,-78.6
12.800,9.528,1.149,2.575,25.146,-5.493,30.273,-6.3,-70.3,-77.8
12.810,9.818,1.080,2.480,22.949,-3.296,31.616,-6.8,-70.4,-77.1
12.820,9.854,0.996,2.404,20.996,3.235,32.654,-7.3,-70.4,-76.3
12.830,9.722,0.691,2.599,18.066,10.681,33.752,-7.8,-70.3,-75.5
12.840,9.516,0.424,3.008,14.404,15.808,34.241,-8.4,-70.1,-74.7
12.850,9.453,0.163,3.275,13.123,15.503,33.875,-9.1,-69.9,-73.9
12.860,9.592,-0.347,3.489,16.174,15.869,31.616,-9.6,-69.7,-73.1
12.870,9.741,-0.803,3.815,16.846,15.808,28.076,-10.1,-69.5,-72.4
12.880,9.970,-1.297,4.130,17.151,16.785,24.963,-10.6,-69.3,-71.7
12.890,10.196,-1.943,4.368,18.677,15.076,22.888,-11.0,-69.1,-71.1
12.900,10.458,-2.611,4.224,25.940,14.709,23.315,-11.4,-68.9,-70.4
12.910,9.850,-2.158,3.508,37.109,15.259,26.062,-11.9,-68.7,-69.6
12.920,9.237,-0.692,3.359,36.926,17.090,32.349,-12.3,-68.4,-68.7
12.930,9.354,0.134,3.684,33.691,19.775,36.316,-12.7,-68.2,-68.0
12.940,9.695,-0.052,3.368,38.513,23.071,34.607,-12.9,-67.9,-67.3
12.950,9.504,-0.173,2.945,41.748,24.841,28.503,-13.0,-67.6,-66.7
12.960,8.959,-0.195,2.642,39.429,21.606,21.667,-13.0,-67.4,-66.3
12.970,8.434,0.014,2.517,34.241,18.616,17.212,-12.9,-67.2,-66.0
12.980,8.064,0.431,2.851,28.259,16.296,15.015,-12.8,-67.1,-65.8
12.990,8.388,0.608,3.558,25.330,14.465,14.160,-12.6,-66.9,-65.6
13.000,8.767,0.609,4.204,25.269,16.235,14.282,-12.5,-66.7,-65.5
13.010,8.969,-0.032,4.442,24.414,17.761,16.113,-12.3,-66.5,-65.4
13.020,9.283,-1.097,4.205,22.949,16.418,19.165,-12.3,-66.3,-65.1
13.030,9.768,-1.735,3.370,21.973,11.841,19.897,-12.5,-66.1,-64.6
13.040,10.300,-2.073,2.851,22.583,11.719,18.555,-12.8,-66.0,-64.1
13.050,10.494,-1.961,3.094,25.940,19.592,17.395,-13.0,-65.9,-63.6
13.060,9.947,-1.551,3.221,30.518,27.405,16.174,-13.0,-65.6,-63.3
13.070,8.931,-0.831,3.183,31.982,30.518,15.015,-13.0,-65.3,-63.0
13.080,8.026,-0.472,3.230,31.006,31.799,14.221,-12.8,-65.0,-62.9
13.090,7.343,-0.338,3.556,28.564,31.250,13.428,-12.6,-64.7,-62.7
13.100,7.266,-0.473,3.808,26.855,29.053,13.611,-12.4,-64.4,-62.6
13.110,7.632,-0.866,4.249,24.170,26.550,15.137,-12.3,-64.1,-62.5
13.120,8.218,-1.072,4.313,22.034,22.461,17.700,-12.3,-63.8,-62.2
13.130,8.652,-1.287,4.087,19.348,17.639,20.081,-12.4,-63.6,-61.9
13.140,8.644,-1.365,3.953,18.066,14.648,21.301,-12.6,-63.4,-61.4
13.150,8.455,-1.436,4.082,18.372,14.282,22.400,-12.9,-63.2,-61.0
13.160,8.425,-1.553,4.269,22.339,15.808,23.438,-13.1,-63.0,-60.5
13.170,8.431,-1.503,4.125,27.527,16.235,23.254,-13.2,-62.8,-60.1
13.180,8.408,-1.661,3.844,30.090,16.907,21.790,-13.3,-62.6,-59.6
13.190,8.300,-1.617,3.653,30.762,19.043,20.081,-13.4,-62.3,-59.2
13.200,8.051,-1.564,3.753,30.273,22.278,18.799,-13.4,-62.1,-58.9
13.210,7.733,-1.483,3.991,29.480,22.644,17.639,-13.4,-61.9,-58.6
13.220,7.654,-1.327,3.929,28.625,17.578,17.517,-13.4,-61.6,-58.3
13.230,7.754,-1.187,3.895,27.100,10.803,18.616,-13.4,-61.5,-57.9
13.240,7.997,-1.077,3.644,26.428,5.493,21.057,-13.5,-61.4,-57.5
13.250,8.244,-0.885,3.374,24.536,4.028,24.841,-13.7,-61.3,-57.0
13.260,8.231,-0.993,3.611,22.949,7.813,28.442,-13.9,-61.2,-56.5
13.270,8.056,-1.115,4.058,22.278,13.306,30.884,-14.2,-61.1,-55.9
13.280,7.985,-1.323,4.462,23.315,19.043,31.616,-14.4,-60.8,-55.4
13.290,7.902,-1.400,4.692,26.672,22.034,30.212,-14.6,-60.5,-54.9
13.300,7.706,-1.419,4.437,31.494,20.935,26.550,-14.7,-60.2,-54.5
13.310,7.521,-1.607,4.270,34.302,18.738,22.400,-14.7,-60.0,-54.1
13.320,7.405,-1.759,4.288,35.034,17.517,18.982,-14.6,-59.7,-53.7
13.330,7.436,-1.757,4.429,33.813,14.465,16.296,-14.6,-59.5,-53.5
13.340,7.568,-1.687,4.491,32.837,8.362,15.137,-14.5,-59.4,-53.2
13.350,7.905,-1.351,4.282,29.968,2.197,15.808,-14.4,-59.3,-52.9
13.360,8.133,-1.016,4.024,26.855,-1.343,18.066,-14.5,-59.3,-52.5
13.370,8.170,-0.883,3.795,26.001,-1.160,21.362,-14.5,-59.3,-52.1
13.380,8.095,-1.004,3.766,25.208,5.188,24.841,-14.7,-59.2,-51.7
13.390,7.823,-0.877,3.966,27.893,14.771,27.710,-14.8,-59.1,-51.2
13.400,7.389,-0.910,4.459,29.846,19.836,29.419,-14.8,-58.8,-50.8
13.410,7.305,-0.909,4.829,31.555,18.677,29.663,-14.9,-58.6,-50.4
13.420,7.341,-1.055,4.786,32.104,15.564,28.625,-14.9,-58.3,-50.0
13.430,7.553,-1.285,4.775,31.555,13.306,26.306,-14.9,-58.1,-49.5
13.440,7.856,-1.497,4.709,29.602,9.766,23.010,-15.0,-57.9,-49.2
13.450,7.854,-1.528,4.583,28.564,4.578,19.836,-15.0,-57.8,-48.8
13.460,8.043,-1.660,4.502,27.222,0.122,17.578,-15.0,-57.8,-48.4
13.470,8.039,-1.558,4.378,26.611,-1.587,16.479,-15.0,-57.8,-48.1
13.480,7.870,-1.305,4.084,27.344,1.709,17.578,-15.0,-57.7,-47.8
13.490,7.615,-1.000,4.174,27.039,8.179,18.494,-15.0,-57.7,-47.5
13.500,7.405,-0.801,4.674,26.978,11.353,18.555,-15.0,-57.5,-47.2
13.510,7.388,-0.628,5.147,25.757,9.094,17.212,-14.9,-57.4,-47.0
13.520,7.489,-0.634,5.310,26.489,3.845,15.198,-14.8,-57.3,-46.8
13.530,7.831,-0.746,5.328,28.259,-4.272,13.550,-14.7,-57.2,-46.6
13.540,8.312,-1.041,4.960,29.114,-9.766,11.902,-14.6,-57.3,-46.3
13.550,8.768,-1.087,4.467,27.893,-10.803,11.658,-14.5,-57.4,-46.1
13.560,8.848,-1.034,4.079,24.414,-5.859,12.268,-14.4,-57.5,-45.8
13.570,8.939,-0.981,4.100,23.926,2.380,14.221,-14.4,-57.5,-45.6
13.580,8.633,-0.993,4.326,21.973,7.751,15.564,-14.4,-57.4,-45.4
13.590,8.416,-1.035,4.637,22.644,11.841,16.357,-14.3,-57.3,-45.1
13.600,7.929,-1.086,4.762,23.682,13.000,15.564,-14.3,-57.2,-44.9
13.610,7.815,-1.341,4.917,25.024,12.024,15.015,-14.2,-57.1,-44.7
13.620,7.388,-1.433,5.096,24.475,9.216,13.794,-14.1,-56.9,-44.5
13.630,7.286,-1.467,5.227,25.940,5.005,13.123,-14.1,-56.8,-44.3
13.640,7.231,-1.147,5.126,27.466,-1.282,12.268,-14.0,-56.7,-44.1
13.650,7.618,-0.884,5.022,27.954,-7.874,11.414,-13.9,-56.8,-43.8
13.660,7.812,-0.648,4.759,25.818,-13.489,10.254,-13.8,-56.9,-43.6
13.670,8.031,-0.560,4.537,24.292,-13.306,10.071,-13.7,-57.0,-43.4
13.680,8.049,-0.639,4.489,22.339,-10.071,10.315,-13.6,-57.1,-43.2
13.690,8.086,-0.792,4.671,20.630,-7.263,10.010,-13.5,-57.2,-43.0
13.700,8.311,-1.093,5.126,20.020,-5.798,9.766,-13.5,-57.2,-42.8
13.710,8.216,-1.064,5.189,19.897,-9.033,8.606,-13.4,-57.3,-42.7
13.720,8.301,-1.038,5.085,21.057,-10.315,8.423,-13.4,-57.4,-42.5
13.730,8.432,-1.060,5.196,21.362,-12.085,8.423,-13.3,-57.5,-42.3
13.740,8.384,-1.016,5.054,21.484,-14.648,7.996,-13.2,-57.6,-42.1
13.750,8.511,-0.980,4.901,20.630,-16.785,7.813,-13.2,-57.8,-41.9
13.760,8.554,-0.781,4.708,20.325,-16.541,7.507,-13.2,-57.9,-41.7
13.770,8.149,-0.568,4.508,18.860,-13.794,7.813,-13.1,-58.1,-41.5
13.780,8.031,-0.337,4.737,16.663,-10.925,7.813,-13.0,-58.2,-41.4
13.790,8.110,-0.222,5.061,13.794,-10.559,7.507,-13.0,-58.3,-41.2
13.800,8.124,-0.299,5.196,12.451,-12.329,6.897,-12.9,-58.4,-41.1
13.810,8.334,-0.517,5.201,11.169,-13.123,5.981,-12.9,-58.5,-41.0
13.820,8.596,-0.818,5.217,9.888,-14.648,5.432,-12.9,-58.6,-40.9
13.830,8.894,-1.255,5.369,10.620,-16.052,5.249,-12.9,-58.8,-40.7
13.840,8.712,-1.317,5.175,13.977,-20.142,4.639,-12.9,-58.9,-40.6
13.850,8.596,-1.358,4.884,16.846,-24.109,5.066,-12.9,-59.2,-40.4
13.860,8.608,-1.111,4.690,20.874,-23.987,5.920,-12.9,-59.4,-40.1
13.870,8.614,-0.825,4.531,20.447,-22.400,6.287,-12.9,-59.6,-39.9
13.880,8.693,-0.649,4.598,18.555,-17.395,6.226,-12.9,-59.8,-39.7
13.890,8.659,-0.432,4.702,15.625,-14.099,4.944,-12.8,-59.9,-39.6
13.900,8.475,-0.376,4.858,13.916,-12.146,2.869,-12.7,-60.1,-39.5
13.910,8.322,-0.405,4.905,14.038,-13.550,0.793,-12.6,-60.2,-39.5
13.920,8.362,-0.558,4.928,13.245,-17.395,-1.465,-12.4,-60.4,-39.5
13.930,8.207,-0.702,4.717,12.756,-21.667,-2.747,-12.3,-60.6,-39.5
13.940,8.316,-0.732,4.641,13.306,-24.414,-3.235,-12.1,-60.8,-39.5
13.950,8.473,-0.664,4.485,14.221,-26.306,-3.052,-12.0,-61.1,-39.5
13.960,8.569,-0.489,4.214,14.221,-26.550,-2.014,-11.9,-61.3,-39.4
13.970,8.617,-0.308,4.067,13.184,-25.208,-0.916,-11.8,-61.6,-39.4
13.980,8.629,-0.309,3.947,12.451,-20.874,0.488,-11.7,-61.9,-39.3
13.990,8.422,-0.311,4.065,10.010,-15.808,1.709,-11.6,-62.1,-39.3
14.000,8.264,-0.403,4.367,8.484,-12.634,2.319,-11.6,-62.2,-39.2
14.010,8.100,-0.546,4.631,7.019,-14.771,1.709,-11.6,-62.3,-39.1
14.020,8.040,-0.679,4.609,6.836,-19.714,0.122,-11.5,-62.5,-39.1
14.030,7.990,-0.706,4.411,7.751,-24.902,-1.465,-11.5,-62.7,-39.0
14.040,8.245,-0.728,4.281,8.057,-26.611,-2.930,-11.5,-63.0,-39.0
14.050,8.489,-0.732,4.228,8.423,-28.564,-3.723,-11.4,-63.2,-38.9
14.060,8.501,-0.499,3.912,8.606,-30.029,-4.211,-11.3,-63.6,-38.9
14.070,8.558,-0.311,3.798,9.277,-28.503,-3.601,-11.2,-63.9,-38.9
14.080,8.603,-0.124,3.742,8.972,-27.100,-2.747,-11.1,-64.2,-38.9
14.090,8.373,-0.148,3.738,8.850,-23.987,-1.709,-11.0,-64.4,-38.9
14.100,8.286,-0.302,3.950,7.202,-22.522,-1.648,-11.0,-64.7,-38.9
14.110,8.326,-0.502,4.216,4.578,-24.780,-2.441,-10.9,-64.9,-38.9
14.120,8.323,-0.597,4.265,3.967,-28.564,-3.235,-10.9,-65.2,-38.8
14.130,8.506,-0.586,4.072,4.272,-32.532,-4.211,-10.9,-65.5,-38.8
14.140,8.603,-0.489,3.784,4.578,-34.424,-4.578,-10.8,-65.8,-38.8
14.150,8.750,-0.423,3.631,6.409,-33.813,-4.639,-10.8,-66.2,-38.8
14.160,8.666,-0.369,3.480,6.836,-33.936,-4.211,-10.7,-66.5,-38.7
14.170,8.523,-0.264,3.492,6.714,-33.386,-3.967,-10.7,-66.9,-38.7
14.180,8.202,-0.223,3.353,5.859,-33.691,-4.517,-10.6,-67.2,-38.7
14.190,8.078,-0.301,3.435,4.578,-33.936,-5.493,-10.5,-67.5,-38.7
14.200,8.085,-0.364,3.570,3.601,-36.438,-6.897,-10.5,-67.9,-38.8
14.210,8.164,-0.335,3.572,3.174,-39.856,-7.996,-10.4,-68.3,-38.8
14.220,8.343,-0.281,3.446,3.540,-43.762,-8.545,-10.3,-68.7,-38.9
14.230,8.620,-0.252,3.301,4.761,-44.983,-8.728,-10.2,-69.2,-38.9
14.240,8.765,-0.174,2.993,5.371,-45.410,-8.606,-10.1,-69.6,-39.0
14.250,8.801,-0.137,2.929,4.333,-42.725,-8.423,-9.9,-70.1,-39.1
14.260,8.918,-0.098,3.239,3.967,-40.894,-8.667,-9.8,-70.5,-39.2
14.270,8.817,-0.168,3.161,3.174,-45.959,-9.583,-9.7,-71.0,-39.3
14.280,9.237,-0.372,2.964,3.784,-51.514,-10.681,-9.5,-71.5,-39.4
14.290,9.043,-0.217,2.462,4.211,-51.819,-11.536,-9.4,-72.0,-39.5
14.300,8.954,-0.118,2.468,4.456,-45.715,-11.414,-9.2,-72.6,-39.6
14.310,9.296,-0.102,3.046,3.662,-44.678,-11.353,-8.9,-73.0,-39.8
14.320,9.367,0.008,3.115,2.930,-52.246,-12.268,-8.7,-73.5,-40.0
14.330,9.822,0.001,2.933,3.906,-56.580,-12.695,-8.4,-74.1,-40.3
14.340,10.351,0.124,2.683,4.028,-59.387,-13.672,-8.2,-74.7,-40.5
14.350,10.614,0.315,2.096,3.296,-62.927,-14.160,-7.8,-75.3,-40.8
14.360,10.037,0.256,1.402,2.319,-56.030,-14.160,-7.4,-76.0,-41.2
14.370,9.741,0.162,1.879,-0.061,-42.847,-13.367,-7.0,-76.5,-41.6
14.380,10.312,-0.321,3.128,-1.770,-42.236,-13.855,-6.6,-76.9,-42.0
14.390,9.805,-0.391,2.824,1.099,-60.608,-17.822,-6.1,-77.5,-42.5
14.400,10.066,-0.411,1.829,7.141,-73.120,-20.691,-5.5,-78.2,-43.1
14.410,10.436,-0.333,0.842,10.071,-75.439,-21.790,-4.8,-78.9,-43.7
14.420,10.340,-0.183,0.377,8.362,-69.702,-21.301,-3.8,-79.7,-44.6
14.430,10.737,-0.229,0.256,6.104,-62.073,-20.203,-2.9,-80.5,-45.5
14.440,10.439,0.311,0.336,4.944,-53.833,-18.066,-1.7,-81.1,-46.6
14.450,10.239,0.230,0.698,8.362,-42.725,-15.564,-0.6,-81.6,-47.7
14.460,9.449,0.315,0.660,5.554,-42.114,-14.587,0.6,-82.1,-48.8
14.470,9.421,0.084,1.259,2.686,-43.457,-13.550,1.8,-82.5,-50.0
14.480,9.816,-0.084,1.038,4.028,-53.223,-14.160,3.1,-83.0,-51.3
14.490,9.612,-0.001,0.427,7.385,-59.509,-14.648,4.8,-83.6,-52.9
14.500,10.091,-0.074,-0.145,10.437,-61.096,-15.137,6.8,-84.2,-54.9
14.510,9.988,0.108,-0.483,8.484,-58.167,-15.625,9.4,-84.8,-57.4
14.520,10.227,0.182,-0.429,9.033,-51.086,-14.404,12.5,-85.4,-60.4
14.530,10.183,0.268,-0.236,7.751,-47.668,-13.794,16.1,-85.9,-63.9
14.540,9.948,0.469,-0.069,7.568,-46.509,-13.062,20.5,-86.3,-68.2
14.550,10.025,0.403,-0.162,7.935,-46.692,-12.146,25.8,-86.7,-73.5
14.560,9.980,0.488,-0.265,7.996,-47.424,-12.390,32.6,-87.1,-80.2
14.570,9.960,0.525,-0.325,7.263,-47.607,-12.634,41.4,-87.4,-88.9
14.580,10.077,0.536,-0.393,6.836,-48.523,-13.062,52.4,-87.7,-99.8
14.590,10.269,0.505,-0.406,5.432,-50.110,-13.794,65.9,-87.8,-113.3
14.600,10.541,0.451,-0.612,5.005,-50.049,-13.855,80.5,-87.8,-127.8
14.610,10.762,0.449,-0.568,4.761,-48.096,-13.550,94.0,-87.7,-141.3
14.620,10.983,0.642,-0.554,4.822,-45.776,-12.695,105.1,-87.5,-152.3
14.630,11.034,0.654,-0.657,4.700,-44.861,-12.146,113.9,-87.2,-161.1
14.640,11.004,0.839,-0.937,5.249,-43.823,-11.597,120.8,-86.9,-168.0
14.650,10.796,0.893,-1.101,5.249,-40.649,-11.230,126.1,-86.5,-173.2
14.660,10.608,0.894,-1.028,5.615,-36.011,-11.230,129.9,-86.2,-177.0
14.670,10.360,0.973,-0.878,5.310,-33.752,-12.268,132.6,-85.8,-179.7
14.680,10.224,0.900,-0.939,4.517,-34.912,-13.367,134.8,-85.5,178.2
14.690,10.191,0.900,-1.058,3.113,-35.461,-13.550,136.7,-85.1,176.4
14.700,10.089,0.887,-1.322,2.991,-34.424,-13.062,138.3,-84.7,174.8
14.710,9.896,0.929,-1.401,3.174,-32.776,-12.207,139.8,-84.4,173.3
14.720,9.877,0.928,-1.346,2.563,-32.959,-11.475,141.1,-84.0,172.1
14.730,9.950,0.844,-1.287,2.380,-33.752,-10.803,142.3,-83.7,170.9
14.740,10.015,0.788,-1.439,2.869,-32.349,-10.071,143.4,-83.3,169.8
14.750,10.103,0.858,-1.473,2.502,-29.480,-9.705,144.3,-83.0,168.9
14.760,10.280,0.976,-1.298,1.709,-27.100,-9.216,145.0,-82.7,168.2
14.770,10.296,1.135,-1.299,2.197,-26.184,-9.094,145.6,-82.4,167.6
14.780,10.140,1.247,-1.315,3.784,-26.245,-9.155,146.1,-82.1,167.2
14.790,10.073,1.305,-1.405,4.700,-26.489,-9.277,146.5,-81.8,166.8
14.800,10.013,1.365,-1.330,4.700,-27.405,-9.827,146.9,-81.5,166.4
14.810,9.929,1.475,-1.459,4.517,-28.442,-10.254,147.3,-81.2,166.1
14.820,9.950,1.515,-1.530,4.333,-28.809,-10.193,147.7,-80.9,165.8
14.830,10.021,1.539,-1.728,3.052,-28.503,-10.254,148.0,-80.6,165.5
14.840,10.021,1.520,-1.773,1.038,-26.672,-9.949,148.2,-80.2,165.3
14.850,10.071,1.464,-1.752,-0.549,-24.170,-9.521,148.4,-80.0,165.1
14.860,10.066,1.403,-1.594,-1.953,-22.888,-9.277,148.5,-79.7,164.9
14.870,10.051,1.409,-1.533,-2.747,-23.804,-9.399,148.7,-79.4,164.8
14.880,10.019,1.457,-1.649,-3.296,-25.635,-9.644,148.8,-79.2,164.6
14.890,10.129,1.518,-1.795,-4.028,-26.489,-9.583,148.9,-78.9,164.4
14.900,10.142,1.570,-2.020,-4.150,-25.513,-8.911,149.1,-78.6,164.2
14.910,10.142,1.599,-2.148,-3.479,-23.743,-8.240,149.2,-78.3,164.0
14.920,10.069,1.565,-2.185,-3.296,-21.851,-7.813,149.4,-78.0,163.9
14.930,9.970,1.526,-2.161,-3.296,-20.874,-7.324,149.5,-77.8,163.7
14.940,9.963,1.392,-2.050,-2.686,-20.386,-6.775,149.6,-77.6,163.5
14.950,9.980,1.330,-2.028,-2.197,-19.897,-6.531,149.8,-77.3,163.4
14.960,9.874,1.245,-2.112,-1.709,-19.165,-6.287,149.9,-77.1,163.2
14.970,9.793,1.332,-2.109,-1.770,-18.799,-6.348,150.1,-76.9,163.0
14.980,9.786,1.312,-2.132,-2.075,-19.348,-6.287,150.2,-76.7,162.9
14.990,9.824,1.349,-2.128,-2.380,-20.325,-6.348,150.3,-76.5,162.7
15.000,9.816,1.403,-2.118,-2.319,-20.996,-6.470,150.5,-76.3,162.5
15.010,9.878,1.371,-2.201,-2.258,-21.057,-6.287,150.6,-76.1,162.4
15.020,9.965,1.390,-2.313,-2.258,-20.508,-5.981,150.8,-75.8,162.2
15.030,10.035,1.397,-2.320,-1.892,-18.799,-5.737,150.9,-75.6,162.0
15.040,10.091,1.337,-2.375,-1.770,-17.334,-5.188,151.0,-75.5,161.9
15.050,10.055,1.351,-2.409,-1.160,-15.259,-4.456,151.1,-75.3,161.7
15.060,9.995,1.377,-2.478,-0.305,-13.428,-3.784,151.3,-75.1,161.6
15.070,9.843,1.404,-2.395,0.183,-12.207,-3.479,151.4,-75.0,161.5
15.080,9.733,1.420,-2.395,0.854,-12.268,-3.601,151.5,-74.9,161.4
15.090,9.654,1.475,-2.374,0.671,-13.428,-3.967,151.5,-74.7,161.3
15.100,9.528,1.464,-2.495,0.061,-14.099,-4.395,151.6,-74.6,161.3
15.110,9.415,1.465,-2.596,-0.793,-14.282,-4.517,151.7,-74.4,161.2
15.120,9.356,1.369,-2.617,-1.282,-15.137,-4.578,151.8,-74.2,161.1
15.130,9.421,1.422,-2.484,-1.770,-17.151,-4.639,151.9,-74.1,160.9
15.140,9.528,1.415,-2.475,-1.953,-19.226,-4.395,152.1,-73.9,160.8
15.150,9.632,1.389,-2.562,-2.319,-20.569,-4.089,152.2,-73.7,160.6
15.160,9.763,1.374,-2.705,-2.747,-20.508,-3.540,152.4,-73.4,160.4
15.170,9.860,1.368,-2.806,-3.174,-19.165,-2.930,152.6,-73.2,160.1
15.180,9.915,1.306,-2.824,-2.686,-16.968,-2.136,152.8,-73.1,159.9
15.190,9.897,1.408,-2.729,-1.831,-14.954,-1.709,152.9,-72.9,159.7
15.200,9.829,1.438,-2.712,-1.221,-13.306,-1.404,153.1,-72.8,159.6
15.210,9.755,1.533,-2.665,-0.854,-12.512,-1.282,153.2,-72.7,159.4
15.220,9.739,1.545,-2.522,-0.732,-12.573,-1.404,153.3,-72.5,159.3
15.230,9.775,1.499,-2.490,-0.427,-12.939,-1.709,153.4,-72.4,159.2
15.240,9.752,1.501,-2.596,-0.366,-13.611,-2.014,153.5,-72.3,159.1
15.250,9.737,1.427,-2.739,-0.488,-14.771,-2.380,153.6,-72.2,159.0
15.260,9.634,1.422,-2.907,-0.427,-15.381,-2.686,153.7,-72.0,158.8
15.270,9.531,1.393,-3.002,-0.427,-14.709,-2.747,153.9,-71.9,158.7
15.280,9.494,1.347,-2.974,-0.244,-13.489,-2.563,154.0,-71.7,158.6
15.290,9.471,1.332,-2.905,-0.183,-12.634,-2.380,154.1,-71.6,158.4
15.300,9.410,1.398,-2.839,-0.061,-12.817,-2.319,154.2,-71.5,158.3
15.310,9.437,1.418,-2.779,0.244,-13.794,-2.136,154.3,-71.3,158.2
15.320,9.424,1.442,-2.823,0.244,-14.771,-1.831,154.5,-71.2,158.1
15.330,9.552,1.551,-2.835,0.305,-15.869,-1.892,154.6,-71.0,157.9
15.340,9.647,1.563,-2.975,0.244,-16.968,-1.892,154.7,-70.9,157.8
15.350,9.720,1.555,-3.079,0.061,-16.907,-2.136,154.9,-70.7,157.7
15.360,9.775,1.531,-3.021,0.000,-15.381,-1.770,155.0,-70.6,157.5
15.370,9.805,1.446,-3.084,-0.183,-13.733,-1.404,155.1,-70.4,157.4
15.380,9.805,1.459,-3.090,-0.488,-12.573,-1.099,155.2,-70.3,157.3
15.390,9.745,1.557,-3.098,-0.977,-12.268,-0.610,155.3,-70.2,157.1
15.400,9.769,1.547,-3.156,-0.916,-11.963,-0.122,155.5,-70.1,157.0
15.410,9.798,1.592,-3.179,-0.977,-11.719,0.244,155.6,-70.0,156.9
15.420,9.752,1.480,-3.262,-0.854,-10.681,0.366,155.7,-69.9,156.8
15.430,9.631,1.456,-3.225,-0.549,-9.766,0.366,155.8,-69.8,156.6
15.440,9.557,1.395,-3.160,-0.183,-10.010,0.305,155.9,-69.7,156.5
15.450,9.586,1.412,-3.233,0.244,-10.986,0.244,156.0,-69.6,156.4
15.460,9.535,1.491,-3.289,0.366,-11.292,0.244,156.2,-69.5,156.2
15.470,9.494,1.562,-3.374,0.366,-10.620,0.549,156.3,-69.4,156.1
15.480,9.520,1.598,-3.339,-0.183,-9.399,0.793,156.4,-69.3,156.0
15.490,9.478,1.573,-3.306,-0.916,-8.240,0.916,156.5,-69.2,155.9
15.500,9.545,1.576,-3.274,-1.221,-7.202,0.793,156.6,-69.1,155.8
15.510,9.562,1.451,-3.122,-0.793,-6.714,0.549,156.6,-69.1,155.7
15.520,9.557,1.395,-3.155,-0.183,-7.019,0.305,156.7,-69.0,155.6
15.530,9.516,1.300,-3.253,0.305,-8.057,0.122,156.8,-69.0,155.5
15.540,9.518,1.356,-3.364,0.549,-8.484,0.122,156.9,-68.9,155.4
15.550,9.509,1.444,-3.436,0.916,-8.301,0.366,157.0,-68.8,155.3
15.560,9.479,1.465,-3.447,0.671,-7.446,0.549,157.1,-68.7,155.2
15.570,9.458,1.518,-3.387,0.732,-6.836,0.610,157.2,-68.7,155.1
15.580,9.513,1.524,-3.332,0.488,-7.263,0.549,157.3,-68.6,155.1
15.590,9.568,1.488,-3.383,0.305,-7.751,0.427,157.4,-68.5,155.0
15.600,9.585,1.501,-3.486,0.244,-7.751,0.366,157.5,-68.5,154.9
15.610,9.604,1.497,-3.539,0.061,-6.775,0.488,157.5,-68.4,154.8
15.620,9.594,1.511,-3.504,-0.122,-5.310,0.732,157.6,-68.3,154.7
15.630,9.603,1.460,-3.458,-0.122,-4.272,0.732,157.7,-68.3,154.7
15.640,9.495,1.475,-3.460,-0.122,-4.272,0.671,157.7,-68.3,154.6
15.650,9.491,1.457,-3.519,0.183,-4.517,0.610,157.8,-68.2,154.6
15.660,9.489,1.430,-3.561,0.427,-4.211,0.427,157.8,-68.2,154.5
15.670,9.497,1.433,-3.499,0.671,-3.662,0.366,157.9,-68.1,154.5
15.680,9.427,1.401,-3.526,0.916,-3.418,0.244,157.9,-68.1,154.4
15.690,9.462,1.465,-3.477,0.916,-3.479,0.122,158.0,-68.1,154.4
15.700,9.441,1.446,-3.465,1.282,-4.089,0.061,158.0,-68.0,154.4
15.710,9.418,1.442,-3.523,1.526,-4.639,0.000,158.1,-68.0,154.3
15.720,9.464,1.429,-3.547,1.953,-4.944,0.000,158.1,-67.9,154.3
15.730,9.484,1.439,-3.628,2.197,-5.127,0.122,158.2,-67.9,154.2
15.740,9.509,1.477,-3.784,1.953,-4.211,0.366,158.3,-67.8,154.2
15.750,9.488,1.476,-3.741,1.404,-2.991,0.427,158.3,-67.8,154.1
15.760,9.471,1.512,-3.764,0.916,-2.319,0.549,158.4,-67.8,154.1
15.770,9.491,1.487,-3.640,0.549,-1.953,0.366,158.4,-67.8,154.1
15.780,9.441,1.398,-3.600,0.122,-2.258,0.122,158.4,-67.7,154.0
15.790,9.440,1.470,-3.541,0.305,-2.197,0.061,158.5,-67.7,154.0
15.800,9.409,1.411,-3.532,0.366,-2.380,0.061,158.5,-67.7,154.0
15.810,9.416,1.457,-3.605,0.610,-2.502,0.122,158.5,-67.7,154.0
15.820,9.442,1.456,-3.646,0.671,-2.380,0.122,158.5,-67.6,154.0
15.830,9.407,1.478,-3.659,0.732,-2.136,0.244,158.6,-67.6,153.9
15.840,9.456,1.497,-3.600,0.793,-2.014,0.427,158.6,-67.6,153.9
15.850,9.477,1.464,-3.630,1.099,-1.648,0.488,158.6,-67.6,153.9
15.860,9.484,1.471,-3.578,1.343,-1.404,0.488,158.7,-67.6,153.9
15.870,9.460,1.441,-3.617,1.465,-1.160,0.610,158.7,-67.5,153.8
15.880,9.502,1.412,-3.644,1.343,-0.854,0.549,158.7,-67.5,153.8
15.890,9.443,1.433,-3.545,1.221,-0.244,0.549,158.8,-67.5,153.8
15.900,9.433,1.441,-3.522,1.282,0.183,0.610,158.8,-67.5,153.8
15.910,9.403,1.447,-3.559,1.099,0.183,0.549,158.8,-67.5,153.8
15.920,9.388,1.441,-3.558,0.977,-0.305,0.183,158.8,-67.5,153.8
15.930,9.439,1.428,-3.494,0.732,-0.610,0.061,158.8,-67.5,153.8
15.940,9.442,1.471,-3.574,0.549,-1.038,-0.244,158.8,-67.5,153.8
15.950,9.434,1.514,-3.599,0.427,-0.916,-0.244,158.8,-67.5,153.8
15.960,9.401,1.533,-3.636,0.122,-0.671,-0.122,158.8,-67.5,153.8
15.970,9.364,1.466,-3.509,0.000,-0.549,-0.183,158.8,-67.5,153.8
15.980,9.418,1.421,-3.537,0.244,-0.732,-0.122,158.8,-67.5,153.8
15.990,9.443,1.392,-3.606,0.305,-0.793,-0.061,158.8,-67.5,153.8
16.000,9.474,1.327,-3.557,0.305,-0.488,0.000,158.8,-67.5,153.8
16.010,9.434,1.377,-3.630,0.366,0.122,0.061,158.8,-67.5,153.8
16.020,9.434,1.380,-3.680,0.488,1.038,0.000,158.8,-67.5,153.8
16.030,9.416,1.415,-3.607,0.549,1.526,0.000,158.8,-67.5,153.8
16.040,9.416,1.412,-3.569,0.793,1.526,0.000,158.8,-67.5,153.9
16.050,9.398,1.380,-3.489,1.160,1.404,-0.061,158.8,-67.5,153.9
16.060,9.386,1.366,-3.505,1.221,1.221,-0.183,158.8,-67.5,153.9
16.070,9.431,1.356,-3.499,1.160,0.916,-0.427,158.8,-67.6,153.9
16.080,9.496,1.387,-3.519,1.099,0.366,-0.671,158.8,-67.6,154.0
16.090,9.495,1.344,-3.632,1.099,0.488,-0.854,158.8,-67.6,154.0
16.100,9.477,1.421,-3.661,0.977,1.404,-0.732,158.8,-67.6,154.0
16.110,9.448,1.442,-3.655,0.549,2.258,-0.732,158.8,-67.6,154.0
16.120,9.409,1.477,-3.608,0.183,2.686,-0.854,158.7,-67.6,154.1
16.130,9.334,1.466,-3.576,0.122,2.502,-0.671,158.7,-67.6,154.1
16.140,9.255,1.484,-3.529,0.366,1.709,-0.916,158.6,-67.6,154.2
16.150,9.270,1.508,-3.564,0.183,1.038,-0.977,158.6,-67.6,154.2
16.160,9.283,1.500,-3.534,0.061,0.427,-1.282,158.5,-67.6,154.3
16.170,9.332,1.470,-3.517,-0.122,-0.122,-1.404,158.5,-67.6,154.3
16.180,9.354,1.393,-3.495,0.183,-0.244,-1.404,158.5,-67.6,154.4
16.190,9.363,1.424,-3.511,0.732,0.549,-1.282,158.4,-67.6,154.4
16.200,9.388,1.402,-3.515,1.282,1.221,-1.221,158.4,-67.6,154.4
16.210,9.400,1.392,-3.413,1.892,1.282,-1.221,158.4,-67.6,154.5
16.220,9.418,1.442,-3.436,2.502,0.793,-1.038,158.4,-67.6,154.5
16.230,9.434,1.491,-3.523,2.808,0.305,-1.099,158.4,-67.6,154.6
16.240,9.415,1.484,-3.474,2.563,0.305,-1.160,158.4,-67.6,154.6
16.250,9.495,1.475,-3.443,2.930,0.061,-1.282,158.4,-67.6,154.7
16.260,9.509,1.481,-3.559,3.235,-0.671,-1.465,158.3,-67.6,154.7
16.270,9.461,1.460,-3.596,3.235,-0.732,-1.648,158.3,-67.6,154.7
16.280,9.473,1.439,-3.583,2.991,-0.305,-1.770,158.3,-67.6,154.8
16.290,9.495,1.391,-3.528,3.296,0.366,-1.770,158.3,-67.6,154.8
16.300,9.558,1.396,-3.687,3.784,1.282,-1.831,158.3,-67.6,154.9
16.310,9.477,1.381,-3.605,3.845,2.380,-1.770,158.3,-67.6,154.9
16.320,9.462,1.415,-3.564,3.845,3.052,-2.075,158.3,-67.6,155.0
16.330,9.373,1.402,-3.559,3.723,3.601,-2.136,158.2,-67.7,155.1
16.340,9.316,1.430,-3.401,3.906,3.601,-2.075,158.2,-67.7,155.2
16.350,9.300,1.459,-3.330,4.150,2.808,-2.014,158.1,-67.7,155.3
16.360,9.307,1.474,-3.326,4.822,1.038,-2.136,158.1,-67.7,155.4
16.370,9.351,1.474,-3.361,5.188,-0.671,-2.075,158.1,-67.7,155.4
16.380,9.403,1.491,-3.547,5.493,-1.587,-2.380,158.1,-67.7,155.5
16.390,9.352,1.559,-3.656,5.066,-1.465,-2.197,158.1,-67.7,155.5
16.400,9.449,1.480,-3.799,4.028,-0.488,-2.136,158.1,-67.6,155.6
16.410,9.484,1.482,-3.795,2.869,0.854,-2.075,158.1,-67.6,155.6
16.420,9.403,1.490,-3.756,1.770,2.625,-1.892,158.1,-67.6,155.7
16.430,9.381,1.515,-3.620,0.977,3.906,-1.831,158.0,-67.7,155.8
16.440,9.364,1.488,-3.461,0.916,3.906,-1.587,157.9,-67.7,155.9
16.450,9.334,1.505,-3.403,2.014,2.686,-1.953,157.9,-67.7,156.0
16.460,9.351,1.497,-3.358,3.113,0.854,-2.380,157.8,-67.7,156.0
16.470,9.399,1.450,-3.429,3.601,-1.282,-2.991,157.8,-67.7,156.1
16.480,9.388,1.451,-3.561,3.784,-2.441,-3.601,157.8,-67.7,156.2
16.490,9.461,1.499,-3.681,3.479,-2.319,-3.845,157.8,-67.6,156.3
16.500,9.409,1.525,-3.714,2.991,-1.343,-3.723,157.7,-67.6,156.3
16.510,9.429,1.557,-3.758,2.930,-0.061,-3.479,157.7,-67.6,156.4
16.520,9.467,1.561,-3.634,3.235,1.038,-3.113,157.6,-67.5,156.5
16.530,9.429,1.533,-3.509,3.601,1.709,-2.808,157.6,-67.5,156.6
16.540,9.412,1.465,-3.472,4.028,2.014,-2.686,157.5,-67.6,156.7
16.550,9.380,1.442,-3.420,4.150,1.831,-2.747,157.5,-67.6,156.8
16.560,9.407,1.392,-3.460,4.700,0.977,-2.869,157.5,-67.6,156.9
16.570,9.364,1.472,-3.472,5.005,0.061,-2.991,157.4,-67.6,156.9
16.580,9.397,1.481,-3.532,4.944,-0.366,-2.991,157.4,-67.5,157.0
16.590,9.382,1.487,-3.613,4.700,0.244,-2.991,157.4,-67.5,157.1
16.600,9.393,1.501,-3.559,4.456,1.038,-2.930,157.4,-67.5,157.2
16.610,9.388,1.505,-3.453,4.028,1.282,-3.113,157.3,-67.5,157.3
16.620,9.377,1.532,-3.426,4.333,0.732,-3.174,157.3,-67.5,157.4
16.630,9.393,1.541,-3.392,4.639,0.366,-3.174,157.2,-67.5,157.4
16.640,9.497,1.517,-3.478,4.761,-0.244,-3.357,157.2,-67.5,157.5
16.650,9.428,1.549,-3.514,4.456,-0.488,-3.540,157.2,-67.5,157.6
16.660,9.440,1.538,-3.455,4.333,-0.305,-3.967,157.1,-67.5,157.7
16.670,9.464,1.477,-3.447,4.456,-0.671,-4.028,157.1,-67.5,157.8
16.680,9.416,1.464,-3.430,5.066,-1.099,-4.089,157.1,-67.4,157.9
16.690,9.394,1.470,-3.537,5.798,-0.427,-3.906,157.0,-67.4,158.0
16.700,9.362,1.496,-3.636,5.981,0.183,-3.723,157.0,-67.4,158.1
16.710,9.301,1.503,-3.601,6.104,0.916,-3.540,157.0,-67.4,158.2
16.720,9.310,1.527,-3.587,5.737,0.610,-3.357,157.0,-67.4,158.3
16.730,9.289,1.563,-3.626,5.920,0.549,-3.296,156.9,-67.4,158.4
16.740,9.319,1.549,-3.558,6.348,1.160,-3.296,156.9,-67.4,158.5
16.750,9.344,1.598,-3.598,6.531,0.916,-3.357,156.9,-67.4,158.6
16.760,9.348,1.596,-3.647,6.531,1.221,-3.479,156.9,-67.4,158.7
16.770,9.330,1.591,-3.634,6.348,2.563,-3.479,156.8,-67.4,158.8
16.780,9.350,1.576,-3.587,6.104,3.845,-3.174,156.8,-67.4,158.9
16.790,9.364,1.592,-3.502,6.165,3.845,-3.174,156.7,-67.4,159.0
16.800,9.296,1.610,-3.393,6.470,3.357,-3.113,156.7,-67.4,159.1
16.810,9.358,1.603,-3.381,6.775,1.770,-3.174,156.6,-67.4,159.2
16.820,9.345,1.702,-3.510,6.836,0.183,-3.174,156.6,-67.4,159.3
16.830,9.355,1.744,-3.604,6.836,0.122,-3.113,156.6,-67.4,159.4
16.840,9.355,1.815,-3.693,5.737,0.183,-2.747,156.6,-67.4,159.5
16.850,9.388,1.818,-3.701,5.920,1.221,-2.441,156.6,-67.4,159.6
16.860,9.377,1.800,-3.653,5.676,2.380,-2.197,156.5,-67.4,159.7
16.870,9.387,1.791,-3.625,5.676,3.601,-1.892,156.5,-67.4,159.8
16.880,9.376,1.810,-3.581,5.676,3.845,-1.709,156.4,-67.4,159.9
16.890,9.389,1.731,-3.547,5.249,3.662,-1.587,156.4,-67.4,160.0
16.900,9.431,1.645,-3.580,4.822,3.296,-1.587,156.4,-67.4,160.1
16.910,9.383,1.645,-3.549,4.517,2.869,-1.709,156.3,-67.5,160.2
16.920,9.351,1.624,-3.600,4.944,3.052,-1.526,156.3,-67.5,160.3
16.930,9.349,1.611,-3.624,5.554,2.686,-1.770,156.3,-67.5,160.4
16.940,9.297,1.658,-3.744,5.798,2.258,-1.770,156.3,-67.5,160.4
16.950,9.276,1.706,-3.734,5.737,2.441,-1.587,156.3,-67.5,160.5
16.960,9.281,1.730,-3.733,5.676,3.540,-1.160,156.3,-67.5,160.6
16.970,9.278,1.736,-3.588,4.883,4.211,-0.671,156.3,-67.5,160.6
16.980,9.279,1.761,-3.595,4.211,3.967,-0.183,156.2,-67.6,160.7
16.990,9.251,1.752,-3.412,3.906,3.723,0.000,156.2,-67.6,160.8
17.000,9.273,1.718,-3.397,3.845,2.808,-0.122,156.2,-67.6,160.8
17.010,9.249,1.734,-3.496,3.723,1.404,-0.305,156.2,-67.6,160.9
17.020,9.291,1.689,-3.502,3.784,0.183,-0.610,156.2,-67.6,160.9
17.030,9.330,1.724,-3.563,3.418,0.122,-0.610,156.2,-67.6,160.9
17.040,9.330,1.709,-3.569,3.174,0.854,-0.366,156.2,-67.6,161.0
17.050,9.345,1.720,-3.570,2.686,1.282,-0.244,156.2,-67.6,161.0
17.060,9.356,1.733,-3.543,2.319,1.404,-0.061,156.2,-67.6,161.0
17.070,9.401,1.719,-3.466,2.136,0.488,0.122,156.2,-67.6,161.1
17.080,9.416,1.694,-3.474,2.075,-0.122,0.183,156.2,-67.6,161.1
17.090,9.411,1.695,-3.486,2.136,-0.549,0.305,156.2,-67.6,161.1
17.100,9.380,1.685,-3.593,2.075,-0.488,0.366,156.2,-67.6,161.1
17.110,9.367,1.657,-3.531,2.075,-0.366,0.427,156.3,-67.6,161.1
17.120,9.377,1.688,-3.598,1.709,0.061,0.610,156.3,-67.6,161.1
17.130,9.376,1.671,-3.529,1.038,0.183,0.610,156.3,-67.6,161.1
17.140,9.338,1.697,-3.511,0.793,0.671,0.793,156.3,-67.6,161.1
17.150,9.308,1.690,-3.561,0.610,1.099,0.916,156.3,-67.6,161.1
17.160,9.297,1.678,-3.485,0.366,0.671,0.977,156.3,-67.6,161.1
17.170,9.338,1.731,-3.404,0.244,-0.366,1.099,156.3,-67.6,161.1
17.180,9.284,1.701,-3.539,0.427,-1.343,1.038,156.4,-67.6,161.0
17.190,9.310,1.658,-3.529,0.366,-1.892,1.160,156.4,-67.6,161.0
17.200,9.303,1.657,-3.545,0.122,-2.625,1.282,156.4,-67.6,161.0
17.210,9.321,1.681,-3.582,0.000,-3.174,1.282,156.5,-67.5,160.9
17.220,9.307,1.681,-3.616,-0.061,-3.174,1.404,156.5,-67.5,160.9
17.230,9.320,1.646,-3.662,-0.183,-2.747,1.648,156.6,-67.5,160.8
17.240,9.367,1.677,-3.661,-0.183,-1.953,1.770,156.6,-67.5,160.7
9.540,11.128,-0.330,0.409,87.158,-0.366,4.272,15.1,-81.3,18.3
9.550,11.051,-0.294,0.463,86.304,5.493,7.263,15.4,-81.4,18.9
9.560,10.967,-0.251,0.473,87.524,10.742,10.010,15.4,-81.3,19.8
9.570,10.782,-0.337,0.528,91.064,15.137,11.475,15.2,-81.3,20.9
9.580,10.451,-0.434,0.566,94.177,17.639,12.085,14.9,-81.2,22.1
9.590,9.957,-0.427,0.606,97.412,19.897,13.123,14.6,-81.1,23.4
9.600,9.617,-0.537,0.625,97.107,21.912,13.367,14.3,-81.0,24.7
9.610,9.240,-0.471,0.746,96.924,22.461,12.573,13.9,-80.8,26.1
9.620,8.975,-0.311,0.882,95.886,22.339,11.841,13.7,-80.7,27.3
9.630,8.947,-0.117,0.955,96.619,20.020,11.169,13.5,-80.5,28.4
9.640,9.150,-0.111,0.989,96.619,16.357,9.705,13.6,-80.4,29.3
9.650,9.298,-0.230,1.220,94.910,13.916,8.179,13.7,-80.3,30.2
9.660,9.638,-0.303,1.305,97.107,12.329,6.897,14.0,-80.2,30.9
9.670,9.909,-0.204,0.913,100.037,10.437,6.592,14.3,-80.2,31.6
9.680,9.885,0.074,0.807,102.051,10.864,7.813,14.6,-80.1,32.3
9.690,9.721,0.334,0.724,102.356,14.404,11.292,14.9,-80.1,33.1
9.700,9.552,0.298,1.071,101.013,20.264,16.602,14.8,-80.0,34.2
9.710,9.342,0.208,1.544,99.609,26.123,21.240,14.3,-79.8,35.6
9.720,9.248,0.418,2.188,97.168,28.259,24.963,13.6,-79.6,37.4
9.730,9.794,0.639,2.497,96.802,26.794,29.236,12.7,-79.4,39.2
9.740,10.455,1.229,2.528,94.116,25.330,34.180,11.7,-79.1,41.2
9.750,10.649,1.855,1.738,90.210,26.123,38.757,10.7,-78.9,43.2
9.760,10.399,2.118,1.235,85.693,33.569,40.955,9.6,-78.7,45.2
9.770,9.899,2.141,1.404,76.782,39.734,40.222,8.6,-78.4,47.1
9.780,9.351,1.714,1.851,72.815,42.908,37.720,7.6,-78.1,48.9
9.790,8.851,1.302,1.994,73.181,41.931,34.607,6.7,-77.7,50.6
9.800,8.774,1.074,1.865,75.989,37.048,31.738,6.0,-77.3,52.1
9.810,8.923,0.979,1.456,78.735,30.762,31.128,5.5,-77.0,53.4
9.820,9.307,0.983,0.942,78.674,25.574,33.508,4.9,-76.8,54.8
9.830,9.522,1.064,0.735,75.867,25.330,38.147,4.2,-76.7,56.3
9.840,9.433,1.190,0.930,73.547,28.381,44.250,3.3,-76.5,58.1
9.850,9.017,1.064,1.132,72.510,28.809,49.255,2.2,-76.3,60.0
9.860,8.659,1.009,1.332,71.777,25.391,50.659,1.0,-76.1,62.0
9.870,8.592,0.950,1.452,70.923,19.959,49.622,-0.2,-75.9,63.9
9.880,8.785,0.745,1.392,70.862,15.320,47.119,-1.2,-75.7,65.7
9.890,9.218,0.370,1.172,72.327,11.414,43.518,-2.1,-75.6,67.3
9.900,9.848,0.242,0.929,73.181,7.141,39.185,-2.8,-75.6,68.9
9.910,10.263,0.372,0.637,74.524,4.700,35.400,-3.4,-75.6,70.3
9.920,10.451,0.719,0.324,75.195,6.165,33.447,-3.9,-75.6,71.6
9.930,10.430,1.026,0.388,73.425,10.498,32.349,-4.3,-75.6,72.7
9.940,10.293,1.180,0.754,72.205,14.465,31.433,-4.6,-75.5,73.7
9.950,10.291,1.320,1.032,72.632,14.404,29.663,-4.7,-75.5,74.7
9.960,10.337,1.614,1.144,72.571,11.658,28.564,-4.8,-75.4,75.5
9.970,10.406,1.824,1.177,71.594,10.193,28.137,-4.8,-75.3,76.3
9.980,10.381,1.864,1.132,69.092,8.667,27.710,-4.8,-75.3,77.1
9.990,10.148,1.865,0.976,66.650,7.690,26.855,-4.8,-75.3,77.8
10.000,10.042,1.976,0.803,63.232,7.324,26.001,-4.8,-75.2,78.5
10.010,10.002,2.031,0.938,59.509,6.470,25.391,-4.8,-75.2,79.1
10.020,9.913,2.019,1.043,56.580,6.531,25.330,-4.8,-75.2,79.7
10.030,9.787,1.971,0.983,54.077,6.470,25.574,-4.8,-75.2,80.3
10.040,9.840,1.920,0.930,52.368,7.568,26.123,-4.9,-75.2,81.0
10.050,9.871,1.933,1.014,50.293,9.033,26.306,-5.0,-75.2,81.7
10.060,9.914,1.847,1.164,47.852,10.193,26.306,-5.2,-75.1,82.3
10.070,9.923,1.659,1.302,46.387,11.047,26.245,-5.3,-75.1,83.0
10.080,9.814,1.386,1.366,45.837,10.620,25.940,-5.5,-75.0,83.7
10.090,9.690,1.209,1.347,45.654,8.728,25.513,-5.7,-74.9,84.4
10.100,9.588,1.053,1.403,45.776,6.226,25.330,-5.9,-74.9,85.1
10.110,9.582,0.907,1.372,45.593,4.456,25.818,-6.2,-74.9,85.9
10.120,9.583,0.743,1.484,45.410,3.113,26.489,-6.5,-74.9,86.7
10.130,9.569,0.709,1.663,46.448,1.709,26.978,-6.9,-74.9,87.6
